#
# Results on Mon, 16 Feb 2026 21:03:43 GMT
# USER AGENT: Mozilla/5.0 (Windows NT 10.0; Win64; x64) AppleWebKit/537.36 (KHTML, like Gecko) Chrome/145.0.0.0 Safari/537.36
# Design number was non-random = 40
#
# Columns below this comment are as follows:
# 1. Results reception time.
# 2. MD5 hash of participant's IP address.
# 3. Controller name.
# 4. Order number of item.
# 5. Inner element number.
# 6. Label.
# 7. Latin Square Group.
# 8. PennElementType.
# 9. PennElementName.
# 10. Parameter.
# 11. Value.
# 12. EventTime.
# 13. RT_answer_header.
# 14. trialN_header.
# 15. source.
# 16. SONA_ID_URL.
# 17. Comments.
1771275823,ecad2e108efa1e3217094bdbb53ccb7f,PennController,1,0,intro,NULL,PennController,0,_Header_,Start,1771275324327,0,0,psych,51760,NULL
1771275823,ecad2e108efa1e3217094bdbb53ccb7f,PennController,1,0,intro,NULL,PennController,0,_Trial_,Start,1771275324327,0,0,psych,51760,NULL
1771275823,ecad2e108efa1e3217094bdbb53ccb7f,PennController,1,0,intro,NULL,PennController,0,_Header_,End,1771275324328,0,0,psych,51760,NULL
1771275823,ecad2e108efa1e3217094bdbb53ccb7f,PennController,1,0,intro,NULL,PennController,0,_Trial_,End,1771275327003,0,0,psych,51760,NULL
1771275823,ecad2e108efa1e3217094bdbb53ccb7f,PennController,2,0,consent,NULL,PennController,1,_Header_,Start,1771275327006,0,0,psych,51760,NULL
1771275823,ecad2e108efa1e3217094bdbb53ccb7f,PennController,2,0,consent,NULL,PennController,1,_Trial_,Start,1771275327006,0,0,psych,51760,NULL
1771275823,ecad2e108efa1e3217094bdbb53ccb7f,PennController,2,0,consent,NULL,PennController,1,_Header_,End,1771275327007,0,0,psych,51760,NULL
1771275823,ecad2e108efa1e3217094bdbb53ccb7f,PennController,2,0,consent,NULL,PennController,1,_Trial_,End,1771275331007,0,0,psych,51760,NULL
1771275823,ecad2e108efa1e3217094bdbb53ccb7f,PennController,3,0,demo,NULL,PennController,2,_Header_,End,1771275331011,0,0,psych,51760,NULL
1771275823,ecad2e108efa1e3217094bdbb53ccb7f,PennController,3,0,demo,NULL,PennController,2,_Header_,Start,1771275331011,0,0,psych,51760,NULL
1771275823,ecad2e108efa1e3217094bdbb53ccb7f,PennController,3,0,demo,NULL,PennController,2,_Trial_,Start,1771275331011,0,0,psych,51760,NULL
1771275823,ecad2e108efa1e3217094bdbb53ccb7f,PennController,3,0,demo,NULL,TextInput,age,First,,1771275334032,0,0,psych,51760,2
1771275823,ecad2e108efa1e3217094bdbb53ccb7f,PennController,3,0,demo,NULL,TextInput,gender,First,,1771275335594,0,0,psych,51760,Shift
1771275823,ecad2e108efa1e3217094bdbb53ccb7f,PennController,3,0,demo,NULL,TextInput,location,First,,1771275338794,0,0,psych,51760,Shift
1771275823,ecad2e108efa1e3217094bdbb53ccb7f,PennController,3,0,demo,NULL,TextInput,native_language,First,,1771275355616,0,0,psych,51760,Shift
1771275823,ecad2e108efa1e3217094bdbb53ccb7f,PennController,3,0,demo,NULL,TextInput,location,Final,Maryland/United States,1771275358269,0,0,psych,51760,NULL
1771275823,ecad2e108efa1e3217094bdbb53ccb7f,PennController,3,0,demo,NULL,TextInput,gender,Final,Woman,1771275358269,0,0,psych,51760,NULL
1771275823,ecad2e108efa1e3217094bdbb53ccb7f,PennController,3,0,demo,NULL,TextInput,age,Final,20,1771275358269,0,0,psych,51760,NULL
1771275823,ecad2e108efa1e3217094bdbb53ccb7f,PennController,3,0,demo,NULL,PennController,2,_Trial_,End,1771275358270,0,0,psych,51760,NULL
1771275823,ecad2e108efa1e3217094bdbb53ccb7f,PennController,3,0,demo,NULL,TextInput,native_language,Final,English,1771275358270,0,0,psych,51760,NULL
1771275823,ecad2e108efa1e3217094bdbb53ccb7f,PennController,4,0,instruction,NULL,PennController,3,_Header_,Start,1771275358272,0,0,psych,51760,NULL
1771275823,ecad2e108efa1e3217094bdbb53ccb7f,PennController,4,0,instruction,NULL,PennController,3,_Trial_,Start,1771275358272,0,0,psych,51760,NULL
1771275823,ecad2e108efa1e3217094bdbb53ccb7f,PennController,4,0,instruction,NULL,PennController,3,_Header_,End,1771275358273,0,0,psych,51760,NULL
1771275823,ecad2e108efa1e3217094bdbb53ccb7f,PennController,4,0,instruction,NULL,PennController,3,_Trial_,End,1771275368753,0,0,psych,51760,NULL
1771275823,ecad2e108efa1e3217094bdbb53ccb7f,PennController,5,0,instruction2,NULL,PennController,4,_Header_,End,1771275368755,0,0,psych,51760,NULL
1771275823,ecad2e108efa1e3217094bdbb53ccb7f,PennController,5,0,instruction2,NULL,PennController,4,_Header_,Start,1771275368755,0,0,psych,51760,NULL
1771275823,ecad2e108efa1e3217094bdbb53ccb7f,PennController,5,0,instruction2,NULL,PennController,4,_Trial_,Start,1771275368755,0,0,psych,51760,NULL
1771275823,ecad2e108efa1e3217094bdbb53ccb7f,PennController,5,0,instruction2,NULL,PennController,4,_Trial_,End,1771275394333,0,0,psych,51760,NULL
1771275823,ecad2e108efa1e3217094bdbb53ccb7f,PennController,6,0,practice_intro,NULL,PennController,5,_Header_,End,1771275394335,0,0,psych,51760,NULL
1771275823,ecad2e108efa1e3217094bdbb53ccb7f,PennController,6,0,practice_intro,NULL,PennController,5,_Header_,Start,1771275394335,0,0,psych,51760,NULL
1771275823,ecad2e108efa1e3217094bdbb53ccb7f,PennController,6,0,practice_intro,NULL,PennController,5,_Trial_,Start,1771275394335,0,0,psych,51760,NULL
1771275823,ecad2e108efa1e3217094bdbb53ccb7f,PennController,6,0,practice_intro,NULL,PennController,5,_Trial_,End,1771275396378,0,0,psych,51760,NULL
# 17. trialN.
# 18. RT-answer.
# 19. Comments.
1771275823,ecad2e108efa1e3217094bdbb53ccb7f,PennController,7,0,practice_1,NULL,PennController,6,_Header_,End,1771275396391,4060,1,psych,51760,1,4060,NULL
1771275823,ecad2e108efa1e3217094bdbb53ccb7f,PennController,7,0,practice_1,NULL,PennController,6,_Header_,Start,1771275396391,4060,1,psych,51760,1,4060,NULL
1771275823,ecad2e108efa1e3217094bdbb53ccb7f,PennController,7,0,practice_1,NULL,PennController,6,_Trial_,Start,1771275396391,4060,1,psych,51760,1,4060,NULL
1771275823,ecad2e108efa1e3217094bdbb53ccb7f,PennController,7,0,practice_1,NULL,Scale,rating,Choice,7,1771275400858,4060,1,psych,51760,1,4060,NULL
1771275823,ecad2e108efa1e3217094bdbb53ccb7f,PennController,7,0,practice_1,NULL,PennController,6,_Trial_,End,1771275408527,4060,1,psych,51760,1,4060,NULL
1771275823,ecad2e108efa1e3217094bdbb53ccb7f,PennController,8,0,practice_2,NULL,PennController,7,_Header_,End,1771275408529,5321,2,psych,51760,2,5321,NULL
1771275823,ecad2e108efa1e3217094bdbb53ccb7f,PennController,8,0,practice_2,NULL,PennController,7,_Header_,Start,1771275408529,5321,2,psych,51760,2,5321,NULL
1771275823,ecad2e108efa1e3217094bdbb53ccb7f,PennController,8,0,practice_2,NULL,PennController,7,_Trial_,Start,1771275408529,5321,2,psych,51760,2,5321,NULL
1771275823,ecad2e108efa1e3217094bdbb53ccb7f,PennController,8,0,practice_2,NULL,Scale,rating,Choice,1,1771275414257,5321,2,psych,51760,2,5321,NULL
1771275823,ecad2e108efa1e3217094bdbb53ccb7f,PennController,8,0,practice_2,NULL,PennController,7,_Trial_,End,1771275418237,5321,2,psych,51760,2,5321,NULL
1771275823,ecad2e108efa1e3217094bdbb53ccb7f,PennController,9,0,practice_3,NULL,PennController,8,_Header_,Start,1771275418238,9449,3,psych,51760,3,9449,NULL
1771275823,ecad2e108efa1e3217094bdbb53ccb7f,PennController,9,0,practice_3,NULL,PennController,8,_Trial_,Start,1771275418238,9449,3,psych,51760,3,9449,NULL
1771275823,ecad2e108efa1e3217094bdbb53ccb7f,PennController,9,0,practice_3,NULL,PennController,8,_Header_,End,1771275418239,9449,3,psych,51760,3,9449,NULL
1771275823,ecad2e108efa1e3217094bdbb53ccb7f,PennController,9,0,practice_3,NULL,Scale,rating,Choice,6,1771275428096,9449,3,psych,51760,3,9449,NULL
1771275823,ecad2e108efa1e3217094bdbb53ccb7f,PennController,9,0,practice_3,NULL,PennController,8,_Trial_,End,1771275431948,9449,3,psych,51760,3,9449,NULL
1771275823,ecad2e108efa1e3217094bdbb53ccb7f,PennController,10,0,practice_4,NULL,PennController,9,_Header_,End,1771275431950,2436,4,psych,51760,4,2436,NULL
1771275823,ecad2e108efa1e3217094bdbb53ccb7f,PennController,10,0,practice_4,NULL,PennController,9,_Header_,Start,1771275431950,2436,4,psych,51760,4,2436,NULL
1771275823,ecad2e108efa1e3217094bdbb53ccb7f,PennController,10,0,practice_4,NULL,PennController,9,_Trial_,Start,1771275431950,2436,4,psych,51760,4,2436,NULL
1771275823,ecad2e108efa1e3217094bdbb53ccb7f,PennController,10,0,practice_4,NULL,Scale,rating,Choice,1,1771275434791,2436,4,psych,51760,4,2436,NULL
1771275823,ecad2e108efa1e3217094bdbb53ccb7f,PennController,10,0,practice_4,NULL,PennController,9,_Trial_,End,1771275436846,2436,4,psych,51760,4,2436,NULL
# 17. Comments.
1771275823,ecad2e108efa1e3217094bdbb53ccb7f,PennController,11,0,exp_start,NULL,PennController,10,_Header_,End,1771275436848,2436,4,psych,51760,NULL
1771275823,ecad2e108efa1e3217094bdbb53ccb7f,PennController,11,0,exp_start,NULL,PennController,10,_Header_,Start,1771275436848,2436,4,psych,51760,NULL
1771275823,ecad2e108efa1e3217094bdbb53ccb7f,PennController,11,0,exp_start,NULL,PennController,10,_Trial_,Start,1771275436848,2436,4,psych,51760,NULL
1771275823,ecad2e108efa1e3217094bdbb53ccb7f,PennController,11,0,exp_start,NULL,PennController,10,_Trial_,End,1771275438689,2436,4,psych,51760,NULL
# 17. trialN.
# 18. RT-answer.
# 19. item_id.
# 20. group.
# 21. character.
# 22. verb.
# 23. past_form.
# 24. type.
# 25. picture.
# 26. tense.
# 27. sentence.
# 28. Comments.
1771275823,ecad2e108efa1e3217094bdbb53ccb7f,PennController,76,0,filler,NULL,PennController,77,_Header_,End,1771275438691,3344,5,psych,51760,5,3344,ctrl_wrong_Chef_climb_future,A,Chef,dig,dug,Irregular,chef_climb_ladder_v2.png,future,The Chef will dig a hole,NULL
1771275823,ecad2e108efa1e3217094bdbb53ccb7f,PennController,76,0,filler,NULL,PennController,77,_Header_,Start,1771275438691,3344,5,psych,51760,5,3344,ctrl_wrong_Chef_climb_future,A,Chef,dig,dug,Irregular,chef_climb_ladder_v2.png,future,The Chef will dig a hole,NULL
1771275823,ecad2e108efa1e3217094bdbb53ccb7f,PennController,76,0,filler,NULL,PennController,77,_Trial_,Start,1771275438691,3344,5,psych,51760,5,3344,ctrl_wrong_Chef_climb_future,A,Chef,dig,dug,Irregular,chef_climb_ladder_v2.png,future,The Chef will dig a hole,NULL
1771275823,ecad2e108efa1e3217094bdbb53ccb7f,PennController,76,0,filler,NULL,Scale,rating,Choice,1,1771275442441,3344,5,psych,51760,5,3344,ctrl_wrong_Chef_climb_future,A,Chef,dig,dug,Irregular,chef_climb_ladder_v2.png,future,The Chef will dig a hole,NULL
1771275823,ecad2e108efa1e3217094bdbb53ccb7f,PennController,76,0,filler,NULL,PennController,77,_Trial_,End,1771275442851,3344,5,psych,51760,5,3344,ctrl_wrong_Chef_climb_future,A,Chef,dig,dug,Irregular,chef_climb_ladder_v2.png,future,The Chef will dig a hole,NULL
1771275823,ecad2e108efa1e3217094bdbb53ccb7f,PennController,61,0,experiment,NULL,PennController,62,_Header_,End,1771275442853,7711,6,psych,51760,6,7711,Wizard_paint,A,Wizard,paint,painted,Regular,wizard_paint_canvas_v2.png,past,The Wizard painted a canvas,NULL
1771275823,ecad2e108efa1e3217094bdbb53ccb7f,PennController,61,0,experiment,NULL,PennController,62,_Header_,Start,1771275442853,7711,6,psych,51760,6,7711,Wizard_paint,A,Wizard,paint,painted,Regular,wizard_paint_canvas_v2.png,past,The Wizard painted a canvas,NULL
1771275823,ecad2e108efa1e3217094bdbb53ccb7f,PennController,61,0,experiment,NULL,PennController,62,_Trial_,Start,1771275442853,7711,6,psych,51760,6,7711,Wizard_paint,A,Wizard,paint,painted,Regular,wizard_paint_canvas_v2.png,past,The Wizard painted a canvas,NULL
1771275823,ecad2e108efa1e3217094bdbb53ccb7f,PennController,61,0,experiment,NULL,Scale,rating,Choice,6,1771275450969,7711,6,psych,51760,6,7711,Wizard_paint,A,Wizard,paint,painted,Regular,wizard_paint_canvas_v2.png,past,The Wizard painted a canvas,NULL
1771275823,ecad2e108efa1e3217094bdbb53ccb7f,PennController,61,0,experiment,NULL,PennController,62,_Trial_,End,1771275451374,7711,6,psych,51760,6,7711,Wizard_paint,A,Wizard,paint,painted,Regular,wizard_paint_canvas_v2.png,past,The Wizard painted a canvas,NULL
1771275823,ecad2e108efa1e3217094bdbb53ccb7f,PennController,33,0,experiment,NULL,PennController,34,_Header_,End,1771275451376,3019,7,psych,51760,7,3019,Pirate_blow,A,Pirate,blow,blew,Irregular,pirate_blow_bubbles_v5.png,past,The Pirate blew bubbles,NULL
1771275823,ecad2e108efa1e3217094bdbb53ccb7f,PennController,33,0,experiment,NULL,PennController,34,_Header_,Start,1771275451376,3019,7,psych,51760,7,3019,Pirate_blow,A,Pirate,blow,blew,Irregular,pirate_blow_bubbles_v5.png,past,The Pirate blew bubbles,NULL
1771275823,ecad2e108efa1e3217094bdbb53ccb7f,PennController,33,0,experiment,NULL,PennController,34,_Trial_,Start,1771275451376,3019,7,psych,51760,7,3019,Pirate_blow,A,Pirate,blow,blew,Irregular,pirate_blow_bubbles_v5.png,past,The Pirate blew bubbles,NULL
1771275823,ecad2e108efa1e3217094bdbb53ccb7f,PennController,33,0,experiment,NULL,Scale,rating,Choice,7,1771275454801,3019,7,psych,51760,7,3019,Pirate_blow,A,Pirate,blow,blew,Irregular,pirate_blow_bubbles_v5.png,past,The Pirate blew bubbles,NULL
1771275823,ecad2e108efa1e3217094bdbb53ccb7f,PennController,33,0,experiment,NULL,PennController,34,_Trial_,End,1771275455211,3019,7,psych,51760,7,3019,Pirate_blow,A,Pirate,blow,blew,Irregular,pirate_blow_bubbles_v5.png,past,The Pirate blew bubbles,NULL
1771275823,ecad2e108efa1e3217094bdbb53ccb7f,PennController,70,0,experiment,NULL,PennController,71,_Header_,Start,1771275455213,2037,8,psych,51760,8,2037,Wizard_stir,A,Wizard,stir,stirred,Regular,wizard_stir_pot_v2.png,future,The Wizard will stir a pot,NULL
1771275823,ecad2e108efa1e3217094bdbb53ccb7f,PennController,70,0,experiment,NULL,PennController,71,_Trial_,Start,1771275455213,2037,8,psych,51760,8,2037,Wizard_stir,A,Wizard,stir,stirred,Regular,wizard_stir_pot_v2.png,future,The Wizard will stir a pot,NULL
1771275823,ecad2e108efa1e3217094bdbb53ccb7f,PennController,70,0,experiment,NULL,PennController,71,_Header_,End,1771275455214,2037,8,psych,51760,8,2037,Wizard_stir,A,Wizard,stir,stirred,Regular,wizard_stir_pot_v2.png,future,The Wizard will stir a pot,NULL
1771275823,ecad2e108efa1e3217094bdbb53ccb7f,PennController,70,0,experiment,NULL,Scale,rating,Choice,6,1771275457657,2037,8,psych,51760,8,2037,Wizard_stir,A,Wizard,stir,stirred,Regular,wizard_stir_pot_v2.png,future,The Wizard will stir a pot,NULL
1771275823,ecad2e108efa1e3217094bdbb53ccb7f,PennController,70,0,experiment,NULL,PennController,71,_Trial_,End,1771275458063,2037,8,psych,51760,8,2037,Wizard_stir,A,Wizard,stir,stirred,Regular,wizard_stir_pot_v2.png,future,The Wizard will stir a pot,NULL
1771275823,ecad2e108efa1e3217094bdbb53ccb7f,PennController,15,0,experiment,NULL,PennController,16,_Header_,End,1771275458066,4154,9,psych,51760,9,4154,Chef_carry,A,Chef,carry,carried,Regular,chef_carry_box_v5.png,past,The Chef carried a box,NULL
1771275823,ecad2e108efa1e3217094bdbb53ccb7f,PennController,15,0,experiment,NULL,PennController,16,_Header_,Start,1771275458066,4154,9,psych,51760,9,4154,Chef_carry,A,Chef,carry,carried,Regular,chef_carry_box_v5.png,past,The Chef carried a box,NULL
1771275823,ecad2e108efa1e3217094bdbb53ccb7f,PennController,15,0,experiment,NULL,PennController,16,_Trial_,Start,1771275458066,4154,9,psych,51760,9,4154,Chef_carry,A,Chef,carry,carried,Regular,chef_carry_box_v5.png,past,The Chef carried a box,NULL
1771275823,ecad2e108efa1e3217094bdbb53ccb7f,PennController,15,0,experiment,NULL,Scale,rating,Choice,7,1771275462625,4154,9,psych,51760,9,4154,Chef_carry,A,Chef,carry,carried,Regular,chef_carry_box_v5.png,past,The Chef carried a box,NULL
1771275823,ecad2e108efa1e3217094bdbb53ccb7f,PennController,15,0,experiment,NULL,PennController,16,_Trial_,End,1771275463032,4154,9,psych,51760,9,4154,Chef_carry,A,Chef,carry,carried,Regular,chef_carry_box_v5.png,past,The Chef carried a box,NULL
1771275823,ecad2e108efa1e3217094bdbb53ccb7f,PennController,78,0,filler,NULL,PennController,79,_Header_,End,1771275463037,3934,10,psych,51760,10,3934,ctrl_wrong_Wizard_drag_future,A,Wizard,drink,drank,Irregular,wizard_drag_sack_v1.png,future,The Wizard will drink coffee,NULL
1771275823,ecad2e108efa1e3217094bdbb53ccb7f,PennController,78,0,filler,NULL,PennController,79,_Header_,Start,1771275463037,3934,10,psych,51760,10,3934,ctrl_wrong_Wizard_drag_future,A,Wizard,drink,drank,Irregular,wizard_drag_sack_v1.png,future,The Wizard will drink coffee,NULL
1771275823,ecad2e108efa1e3217094bdbb53ccb7f,PennController,78,0,filler,NULL,PennController,79,_Trial_,Start,1771275463037,3934,10,psych,51760,10,3934,ctrl_wrong_Wizard_drag_future,A,Wizard,drink,drank,Irregular,wizard_drag_sack_v1.png,future,The Wizard will drink coffee,NULL
1771275823,ecad2e108efa1e3217094bdbb53ccb7f,PennController,78,0,filler,NULL,Scale,rating,Choice,1,1771275467381,3934,10,psych,51760,10,3934,ctrl_wrong_Wizard_drag_future,A,Wizard,drink,drank,Irregular,wizard_drag_sack_v1.png,future,The Wizard will drink coffee,NULL
1771275823,ecad2e108efa1e3217094bdbb53ccb7f,PennController,78,0,filler,NULL,PennController,79,_Trial_,End,1771275467836,3934,10,psych,51760,10,3934,ctrl_wrong_Wizard_drag_future,A,Wizard,drink,drank,Irregular,wizard_drag_sack_v1.png,future,The Wizard will drink coffee,NULL
1771275823,ecad2e108efa1e3217094bdbb53ccb7f,PennController,13,0,experiment,NULL,PennController,14,_Header_,End,1771275467837,2589,11,psych,51760,11,2589,Chef_blow,A,Chef,blow,blew,Irregular,chef_blow_bubbles_v4.png,past,The Chef blew bubbles,NULL
1771275823,ecad2e108efa1e3217094bdbb53ccb7f,PennController,13,0,experiment,NULL,PennController,14,_Header_,Start,1771275467837,2589,11,psych,51760,11,2589,Chef_blow,A,Chef,blow,blew,Irregular,chef_blow_bubbles_v4.png,past,The Chef blew bubbles,NULL
1771275823,ecad2e108efa1e3217094bdbb53ccb7f,PennController,13,0,experiment,NULL,PennController,14,_Trial_,Start,1771275467837,2589,11,psych,51760,11,2589,Chef_blow,A,Chef,blow,blew,Irregular,chef_blow_bubbles_v4.png,past,The Chef blew bubbles,NULL
1771275823,ecad2e108efa1e3217094bdbb53ccb7f,PennController,13,0,experiment,NULL,Scale,rating,Choice,7,1771275470829,2589,11,psych,51760,11,2589,Chef_blow,A,Chef,blow,blew,Irregular,chef_blow_bubbles_v4.png,past,The Chef blew bubbles,NULL
1771275823,ecad2e108efa1e3217094bdbb53ccb7f,PennController,13,0,experiment,NULL,PennController,14,_Trial_,End,1771275471233,2589,11,psych,51760,11,2589,Chef_blow,A,Chef,blow,blew,Irregular,chef_blow_bubbles_v4.png,past,The Chef blew bubbles,NULL
1771275823,ecad2e108efa1e3217094bdbb53ccb7f,PennController,27,0,experiment,NULL,PennController,28,_Header_,End,1771275471237,2629,12,psych,51760,12,2629,Chef_shake,A,Chef,shake,shook,Irregular,chef_shake_bottle_v2.png,past,The Chef shook a bottle,NULL
1771275823,ecad2e108efa1e3217094bdbb53ccb7f,PennController,27,0,experiment,NULL,PennController,28,_Header_,Start,1771275471237,2629,12,psych,51760,12,2629,Chef_shake,A,Chef,shake,shook,Irregular,chef_shake_bottle_v2.png,past,The Chef shook a bottle,NULL
1771275823,ecad2e108efa1e3217094bdbb53ccb7f,PennController,27,0,experiment,NULL,PennController,28,_Trial_,Start,1771275471237,2629,12,psych,51760,12,2629,Chef_shake,A,Chef,shake,shook,Irregular,chef_shake_bottle_v2.png,past,The Chef shook a bottle,NULL
1771275823,ecad2e108efa1e3217094bdbb53ccb7f,PennController,27,0,experiment,NULL,Scale,rating,Choice,7,1771275474276,2629,12,psych,51760,12,2629,Chef_shake,A,Chef,shake,shook,Irregular,chef_shake_bottle_v2.png,past,The Chef shook a bottle,NULL
1771275823,ecad2e108efa1e3217094bdbb53ccb7f,PennController,27,0,experiment,NULL,PennController,28,_Trial_,End,1771275474685,2629,12,psych,51760,12,2629,Chef_shake,A,Chef,shake,shook,Irregular,chef_shake_bottle_v2.png,past,The Chef shook a bottle,NULL
1771275823,ecad2e108efa1e3217094bdbb53ccb7f,PennController,44,0,experiment,NULL,PennController,45,_Header_,End,1771275474688,15672,13,psych,51760,13,15672,Pirate_push,A,Pirate,push,pushed,Regular,pirate_push_cart_v3.png,future,The Pirate will push a cart,NULL
1771275823,ecad2e108efa1e3217094bdbb53ccb7f,PennController,44,0,experiment,NULL,PennController,45,_Header_,Start,1771275474688,15672,13,psych,51760,13,15672,Pirate_push,A,Pirate,push,pushed,Regular,pirate_push_cart_v3.png,future,The Pirate will push a cart,NULL
1771275823,ecad2e108efa1e3217094bdbb53ccb7f,PennController,44,0,experiment,NULL,PennController,45,_Trial_,Start,1771275474688,15672,13,psych,51760,13,15672,Pirate_push,A,Pirate,push,pushed,Regular,pirate_push_cart_v3.png,future,The Pirate will push a cart,NULL
1771275823,ecad2e108efa1e3217094bdbb53ccb7f,PennController,44,0,experiment,NULL,PennController,45,_Trial_,End,1771275491775,15672,13,psych,51760,13,15672,Pirate_push,A,Pirate,push,pushed,Regular,pirate_push_cart_v3.png,future,The Pirate will push a cart,NULL
1771275823,ecad2e108efa1e3217094bdbb53ccb7f,PennController,82,0,filler,NULL,PennController,83,_Header_,Start,1771275491776,13314,14,psych,51760,14,13314,ctrl_wrong_Chef_peel_future,A,Chef,play,played,Regular,chef_peel_banana_v5.png,future,The Chef will play the guitar,NULL
1771275823,ecad2e108efa1e3217094bdbb53ccb7f,PennController,82,0,filler,NULL,PennController,83,_Trial_,Start,1771275491776,13314,14,psych,51760,14,13314,ctrl_wrong_Chef_peel_future,A,Chef,play,played,Regular,chef_peel_banana_v5.png,future,The Chef will play the guitar,NULL
1771275823,ecad2e108efa1e3217094bdbb53ccb7f,PennController,82,0,filler,NULL,PennController,83,_Header_,End,1771275491777,13314,14,psych,51760,14,13314,ctrl_wrong_Chef_peel_future,A,Chef,play,played,Regular,chef_peel_banana_v5.png,future,The Chef will play the guitar,NULL
1771275823,ecad2e108efa1e3217094bdbb53ccb7f,PennController,82,0,filler,NULL,Scale,rating,Choice,1,1771275506095,13314,14,psych,51760,14,13314,ctrl_wrong_Chef_peel_future,A,Chef,play,played,Regular,chef_peel_banana_v5.png,future,The Chef will play the guitar,NULL
1771275823,ecad2e108efa1e3217094bdbb53ccb7f,PennController,82,0,filler,NULL,PennController,83,_Trial_,End,1771275506501,13314,14,psych,51760,14,13314,ctrl_wrong_Chef_peel_future,A,Chef,play,played,Regular,chef_peel_banana_v5.png,future,The Chef will play the guitar,NULL
1771275823,ecad2e108efa1e3217094bdbb53ccb7f,PennController,71,0,experiment,NULL,PennController,72,_Header_,End,1771275506504,4427,15,psych,51760,15,4427,Wizard_sweep,A,Wizard,sweep,swept,Irregular,wizard_sweep_floor_v3.png,past,The Wizard swept the floor,NULL
1771275823,ecad2e108efa1e3217094bdbb53ccb7f,PennController,71,0,experiment,NULL,PennController,72,_Header_,Start,1771275506504,4427,15,psych,51760,15,4427,Wizard_sweep,A,Wizard,sweep,swept,Irregular,wizard_sweep_floor_v3.png,past,The Wizard swept the floor,NULL
1771275823,ecad2e108efa1e3217094bdbb53ccb7f,PennController,71,0,experiment,NULL,PennController,72,_Trial_,Start,1771275506504,4427,15,psych,51760,15,4427,Wizard_sweep,A,Wizard,sweep,swept,Irregular,wizard_sweep_floor_v3.png,past,The Wizard swept the floor,NULL
1771275823,ecad2e108efa1e3217094bdbb53ccb7f,PennController,71,0,experiment,NULL,Scale,rating,Choice,6,1771275511334,4427,15,psych,51760,15,4427,Wizard_sweep,A,Wizard,sweep,swept,Irregular,wizard_sweep_floor_v3.png,past,The Wizard swept the floor,NULL
1771275823,ecad2e108efa1e3217094bdbb53ccb7f,PennController,71,0,experiment,NULL,PennController,72,_Trial_,End,1771275511741,4427,15,psych,51760,15,4427,Wizard_sweep,A,Wizard,sweep,swept,Irregular,wizard_sweep_floor_v3.png,past,The Wizard swept the floor,NULL
1771275823,ecad2e108efa1e3217094bdbb53ccb7f,PennController,49,0,experiment,NULL,PennController,50,_Header_,End,1771275511744,4984,16,psych,51760,16,4984,Pirate_spin,A,Pirate,spin,spun,Practice,pirate_spin_top_v5.png,past,The Pirate spun a top,NULL
1771275823,ecad2e108efa1e3217094bdbb53ccb7f,PennController,49,0,experiment,NULL,PennController,50,_Header_,Start,1771275511744,4984,16,psych,51760,16,4984,Pirate_spin,A,Pirate,spin,spun,Practice,pirate_spin_top_v5.png,past,The Pirate spun a top,NULL
1771275823,ecad2e108efa1e3217094bdbb53ccb7f,PennController,49,0,experiment,NULL,PennController,50,_Trial_,Start,1771275511744,4984,16,psych,51760,16,4984,Pirate_spin,A,Pirate,spin,spun,Practice,pirate_spin_top_v5.png,past,The Pirate spun a top,NULL
1771275823,ecad2e108efa1e3217094bdbb53ccb7f,PennController,49,0,experiment,NULL,Scale,rating,Choice,7,1771275517135,4984,16,psych,51760,16,4984,Pirate_spin,A,Pirate,spin,spun,Practice,pirate_spin_top_v5.png,past,The Pirate spun a top,NULL
1771275823,ecad2e108efa1e3217094bdbb53ccb7f,PennController,49,0,experiment,NULL,PennController,50,_Trial_,End,1771275517543,4984,16,psych,51760,16,4984,Pirate_spin,A,Pirate,spin,spun,Practice,pirate_spin_top_v5.png,past,The Pirate spun a top,NULL
1771275823,ecad2e108efa1e3217094bdbb53ccb7f,PennController,18,0,experiment,NULL,PennController,19,_Header_,End,1771275517546,5250,17,psych,51760,17,5250,Chef_drag,A,Chef,drag,dragged,Practice,chef_drag_sack_v1.png,future,The Chef will drag a sack,NULL
1771275823,ecad2e108efa1e3217094bdbb53ccb7f,PennController,18,0,experiment,NULL,PennController,19,_Header_,Start,1771275517546,5250,17,psych,51760,17,5250,Chef_drag,A,Chef,drag,dragged,Practice,chef_drag_sack_v1.png,future,The Chef will drag a sack,NULL
1771275823,ecad2e108efa1e3217094bdbb53ccb7f,PennController,18,0,experiment,NULL,PennController,19,_Trial_,Start,1771275517546,5250,17,psych,51760,17,5250,Chef_drag,A,Chef,drag,dragged,Practice,chef_drag_sack_v1.png,future,The Chef will drag a sack,NULL
1771275823,ecad2e108efa1e3217094bdbb53ccb7f,PennController,18,0,experiment,NULL,Scale,rating,Choice,6,1771275523201,5250,17,psych,51760,17,5250,Chef_drag,A,Chef,drag,dragged,Practice,chef_drag_sack_v1.png,future,The Chef will drag a sack,NULL
1771275823,ecad2e108efa1e3217094bdbb53ccb7f,PennController,18,0,experiment,NULL,PennController,19,_Trial_,End,1771275523604,5250,17,psych,51760,17,5250,Chef_drag,A,Chef,drag,dragged,Practice,chef_drag_sack_v1.png,future,The Chef will drag a sack,NULL
1771275823,ecad2e108efa1e3217094bdbb53ccb7f,PennController,90,0,filler,NULL,PennController,91,_Header_,End,1771275523606,2687,18,psych,51760,18,2687,ctrl_wrong_Wizard_stir_future,A,Wizard,sweep,swept,Irregular,wizard_stir_pot_v2.png,future,The Wizard will sweep the floor,NULL
1771275823,ecad2e108efa1e3217094bdbb53ccb7f,PennController,90,0,filler,NULL,PennController,91,_Header_,Start,1771275523606,2687,18,psych,51760,18,2687,ctrl_wrong_Wizard_stir_future,A,Wizard,sweep,swept,Irregular,wizard_stir_pot_v2.png,future,The Wizard will sweep the floor,NULL
1771275823,ecad2e108efa1e3217094bdbb53ccb7f,PennController,90,0,filler,NULL,PennController,91,_Trial_,Start,1771275523606,2687,18,psych,51760,18,2687,ctrl_wrong_Wizard_stir_future,A,Wizard,sweep,swept,Irregular,wizard_stir_pot_v2.png,future,The Wizard will sweep the floor,NULL
1771275823,ecad2e108efa1e3217094bdbb53ccb7f,PennController,90,0,filler,NULL,Scale,rating,Choice,1,1771275526699,2687,18,psych,51760,18,2687,ctrl_wrong_Wizard_stir_future,A,Wizard,sweep,swept,Irregular,wizard_stir_pot_v2.png,future,The Wizard will sweep the floor,NULL
1771275823,ecad2e108efa1e3217094bdbb53ccb7f,PennController,90,0,filler,NULL,PennController,91,_Trial_,End,1771275527106,2687,18,psych,51760,18,2687,ctrl_wrong_Wizard_stir_future,A,Wizard,sweep,swept,Irregular,wizard_stir_pot_v2.png,future,The Wizard will sweep the floor,NULL
1771275823,ecad2e108efa1e3217094bdbb53ccb7f,PennController,46,0,experiment,NULL,PennController,47,_Header_,End,1771275527109,2635,19,psych,51760,19,2635,Pirate_ride,A,Pirate,ride,rode,Irregular,pirate_ride_bicycle_v3.png,future,The Pirate will ride a bicycle,NULL
1771275823,ecad2e108efa1e3217094bdbb53ccb7f,PennController,46,0,experiment,NULL,PennController,47,_Header_,Start,1771275527109,2635,19,psych,51760,19,2635,Pirate_ride,A,Pirate,ride,rode,Irregular,pirate_ride_bicycle_v3.png,future,The Pirate will ride a bicycle,NULL
1771275823,ecad2e108efa1e3217094bdbb53ccb7f,PennController,46,0,experiment,NULL,PennController,47,_Trial_,Start,1771275527109,2635,19,psych,51760,19,2635,Pirate_ride,A,Pirate,ride,rode,Irregular,pirate_ride_bicycle_v3.png,future,The Pirate will ride a bicycle,NULL
1771275823,ecad2e108efa1e3217094bdbb53ccb7f,PennController,46,0,experiment,NULL,Scale,rating,Choice,6,1771275530154,2635,19,psych,51760,19,2635,Pirate_ride,A,Pirate,ride,rode,Irregular,pirate_ride_bicycle_v3.png,future,The Pirate will ride a bicycle,NULL
1771275823,ecad2e108efa1e3217094bdbb53ccb7f,PennController,46,0,experiment,NULL,PennController,47,_Trial_,End,1771275530563,2635,19,psych,51760,19,2635,Pirate_ride,A,Pirate,ride,rode,Irregular,pirate_ride_bicycle_v3.png,future,The Pirate will ride a bicycle,NULL
1771275823,ecad2e108efa1e3217094bdbb53ccb7f,PennController,51,0,experiment,NULL,PennController,52,_Header_,Start,1771275530565,3947,20,psych,51760,20,3947,Pirate_sweep,A,Pirate,sweep,swept,Irregular,pirate_sweep_floor_v4.png,past,The Pirate swept the floor,NULL
1771275823,ecad2e108efa1e3217094bdbb53ccb7f,PennController,51,0,experiment,NULL,PennController,52,_Trial_,Start,1771275530565,3947,20,psych,51760,20,3947,Pirate_sweep,A,Pirate,sweep,swept,Irregular,pirate_sweep_floor_v4.png,past,The Pirate swept the floor,NULL
1771275823,ecad2e108efa1e3217094bdbb53ccb7f,PennController,51,0,experiment,NULL,PennController,52,_Header_,End,1771275530566,3947,20,psych,51760,20,3947,Pirate_sweep,A,Pirate,sweep,swept,Irregular,pirate_sweep_floor_v4.png,past,The Pirate swept the floor,NULL
1771275823,ecad2e108efa1e3217094bdbb53ccb7f,PennController,51,0,experiment,NULL,Scale,rating,Choice,7,1771275534923,3947,20,psych,51760,20,3947,Pirate_sweep,A,Pirate,sweep,swept,Irregular,pirate_sweep_floor_v4.png,past,The Pirate swept the floor,NULL
1771275823,ecad2e108efa1e3217094bdbb53ccb7f,PennController,51,0,experiment,NULL,PennController,52,_Trial_,End,1771275535329,3947,20,psych,51760,20,3947,Pirate_sweep,A,Pirate,sweep,swept,Irregular,pirate_sweep_floor_v4.png,past,The Pirate swept the floor,NULL
1771275823,ecad2e108efa1e3217094bdbb53ccb7f,PennController,25,0,experiment,NULL,PennController,26,_Header_,Start,1771275535332,2771,21,psych,51760,21,2771,Chef_read,A,Chef,read,read,Irregular,chef_read_book_v2.png,past,The Chef read a book,NULL
1771275823,ecad2e108efa1e3217094bdbb53ccb7f,PennController,25,0,experiment,NULL,PennController,26,_Trial_,Start,1771275535332,2771,21,psych,51760,21,2771,Chef_read,A,Chef,read,read,Irregular,chef_read_book_v2.png,past,The Chef read a book,NULL
1771275823,ecad2e108efa1e3217094bdbb53ccb7f,PennController,25,0,experiment,NULL,PennController,26,_Header_,End,1771275535333,2771,21,psych,51760,21,2771,Chef_read,A,Chef,read,read,Irregular,chef_read_book_v2.png,past,The Chef read a book,NULL
1771275823,ecad2e108efa1e3217094bdbb53ccb7f,PennController,25,0,experiment,NULL,Scale,rating,Choice,7,1771275538514,2771,21,psych,51760,21,2771,Chef_read,A,Chef,read,read,Irregular,chef_read_book_v2.png,past,The Chef read a book,NULL
1771275823,ecad2e108efa1e3217094bdbb53ccb7f,PennController,25,0,experiment,NULL,PennController,26,_Trial_,End,1771275538918,2771,21,psych,51760,21,2771,Chef_read,A,Chef,read,read,Irregular,chef_read_book_v2.png,past,The Chef read a book,NULL
1771275823,ecad2e108efa1e3217094bdbb53ccb7f,PennController,91,0,filler,NULL,PennController,92,_Header_,End,1771275538920,3805,22,psych,51760,22,3805,ctrl_wrong_Chef_sweep_past,A,Chef,wash,washed,Regular,chef_sweep_floor_v1.png,past,The Chef washed a dish,NULL
1771275823,ecad2e108efa1e3217094bdbb53ccb7f,PennController,91,0,filler,NULL,PennController,92,_Header_,Start,1771275538920,3805,22,psych,51760,22,3805,ctrl_wrong_Chef_sweep_past,A,Chef,wash,washed,Regular,chef_sweep_floor_v1.png,past,The Chef washed a dish,NULL
1771275823,ecad2e108efa1e3217094bdbb53ccb7f,PennController,91,0,filler,NULL,PennController,92,_Trial_,Start,1771275538920,3805,22,psych,51760,22,3805,ctrl_wrong_Chef_sweep_past,A,Chef,wash,washed,Regular,chef_sweep_floor_v1.png,past,The Chef washed a dish,NULL
1771275823,ecad2e108efa1e3217094bdbb53ccb7f,PennController,91,0,filler,NULL,Scale,rating,Choice,2,1771275543131,3805,22,psych,51760,22,3805,ctrl_wrong_Chef_sweep_past,A,Chef,wash,washed,Regular,chef_sweep_floor_v1.png,past,The Chef washed a dish,NULL
1771275823,ecad2e108efa1e3217094bdbb53ccb7f,PennController,91,0,filler,NULL,PennController,92,_Trial_,End,1771275543539,3805,22,psych,51760,22,3805,ctrl_wrong_Chef_sweep_past,A,Chef,wash,washed,Regular,chef_sweep_floor_v1.png,past,The Chef washed a dish,NULL
1771275823,ecad2e108efa1e3217094bdbb53ccb7f,PennController,56,0,experiment,NULL,PennController,57,_Header_,End,1771275543541,3489,23,psych,51760,23,3489,Wizard_climb,A,Wizard,climb,climbed,Regular,wizard_climb_ladder_v1.png,future,The Wizard will climb a ladder,NULL
1771275823,ecad2e108efa1e3217094bdbb53ccb7f,PennController,56,0,experiment,NULL,PennController,57,_Header_,Start,1771275543541,3489,23,psych,51760,23,3489,Wizard_climb,A,Wizard,climb,climbed,Regular,wizard_climb_ladder_v1.png,future,The Wizard will climb a ladder,NULL
1771275823,ecad2e108efa1e3217094bdbb53ccb7f,PennController,56,0,experiment,NULL,PennController,57,_Trial_,Start,1771275543541,3489,23,psych,51760,23,3489,Wizard_climb,A,Wizard,climb,climbed,Regular,wizard_climb_ladder_v1.png,future,The Wizard will climb a ladder,NULL
1771275823,ecad2e108efa1e3217094bdbb53ccb7f,PennController,56,0,experiment,NULL,Scale,rating,Choice,6,1771275547436,3489,23,psych,51760,23,3489,Wizard_climb,A,Wizard,climb,climbed,Regular,wizard_climb_ladder_v1.png,future,The Wizard will climb a ladder,NULL
1771275823,ecad2e108efa1e3217094bdbb53ccb7f,PennController,56,0,experiment,NULL,PennController,57,_Trial_,End,1771275547841,3489,23,psych,51760,23,3489,Wizard_climb,A,Wizard,climb,climbed,Regular,wizard_climb_ladder_v1.png,future,The Wizard will climb a ladder,NULL
1771275823,ecad2e108efa1e3217094bdbb53ccb7f,PennController,65,0,experiment,NULL,PennController,66,_Header_,End,1771275547843,2723,24,psych,51760,24,2723,Wizard_read,A,Wizard,read,read,Irregular,wizard_read_book_v2.png,past,The Wizard read a book,NULL
1771275823,ecad2e108efa1e3217094bdbb53ccb7f,PennController,65,0,experiment,NULL,PennController,66,_Header_,Start,1771275547843,2723,24,psych,51760,24,2723,Wizard_read,A,Wizard,read,read,Irregular,wizard_read_book_v2.png,past,The Wizard read a book,NULL
1771275823,ecad2e108efa1e3217094bdbb53ccb7f,PennController,65,0,experiment,NULL,PennController,66,_Trial_,Start,1771275547843,2723,24,psych,51760,24,2723,Wizard_read,A,Wizard,read,read,Irregular,wizard_read_book_v2.png,past,The Wizard read a book,NULL
1771275823,ecad2e108efa1e3217094bdbb53ccb7f,PennController,65,0,experiment,NULL,Scale,rating,Choice,7,1771275550972,2723,24,psych,51760,24,2723,Wizard_read,A,Wizard,read,read,Irregular,wizard_read_book_v2.png,past,The Wizard read a book,NULL
1771275823,ecad2e108efa1e3217094bdbb53ccb7f,PennController,65,0,experiment,NULL,PennController,66,_Trial_,End,1771275551377,2723,24,psych,51760,24,2723,Wizard_read,A,Wizard,read,read,Irregular,wizard_read_book_v2.png,past,The Wizard read a book,NULL
# 17. Comments.
1771275823,ecad2e108efa1e3217094bdbb53ccb7f,PennController,12,0,break,NULL,PennController,11,_Header_,End,1771275551381,2723,24,psych,51760,NULL
1771275823,ecad2e108efa1e3217094bdbb53ccb7f,PennController,12,0,break,NULL,PennController,11,_Header_,Start,1771275551381,2723,24,psych,51760,NULL
1771275823,ecad2e108efa1e3217094bdbb53ccb7f,PennController,12,0,break,NULL,PennController,11,_Trial_,Start,1771275551381,2723,24,psych,51760,NULL
1771275823,ecad2e108efa1e3217094bdbb53ccb7f,PennController,12,0,break,NULL,PennController,11,_Trial_,End,1771275554469,2723,24,psych,51760,NULL
# 17. trialN.
# 18. RT-answer.
# 19. item_id.
# 20. group.
# 21. character.
# 22. verb.
# 23. past_form.
# 24. type.
# 25. picture.
# 26. tense.
# 27. sentence.
# 28. Comments.
1771275823,ecad2e108efa1e3217094bdbb53ccb7f,PennController,23,0,experiment,NULL,PennController,24,_Header_,End,1771275554471,3926,25,psych,51760,25,3926,Chef_play,A,Chef,play,played,Regular,chef_play_guitar_v2.png,past,The Chef played the guitar,NULL
1771275823,ecad2e108efa1e3217094bdbb53ccb7f,PennController,23,0,experiment,NULL,PennController,24,_Header_,Start,1771275554471,3926,25,psych,51760,25,3926,Chef_play,A,Chef,play,played,Regular,chef_play_guitar_v2.png,past,The Chef played the guitar,NULL
1771275823,ecad2e108efa1e3217094bdbb53ccb7f,PennController,23,0,experiment,NULL,PennController,24,_Trial_,Start,1771275554471,3926,25,psych,51760,25,3926,Chef_play,A,Chef,play,played,Regular,chef_play_guitar_v2.png,past,The Chef played the guitar,NULL
1771275823,ecad2e108efa1e3217094bdbb53ccb7f,PennController,23,0,experiment,NULL,Scale,rating,Choice,7,1771275558807,3926,25,psych,51760,25,3926,Chef_play,A,Chef,play,played,Regular,chef_play_guitar_v2.png,past,The Chef played the guitar,NULL
1771275823,ecad2e108efa1e3217094bdbb53ccb7f,PennController,23,0,experiment,NULL,PennController,24,_Trial_,End,1771275559217,3926,25,psych,51760,25,3926,Chef_play,A,Chef,play,played,Regular,chef_play_guitar_v2.png,past,The Chef played the guitar,NULL
1771275823,ecad2e108efa1e3217094bdbb53ccb7f,PennController,87,0,filler,NULL,PennController,88,_Header_,End,1771275559220,4679,26,psych,51760,26,4679,ctrl_wrong_Wizard_shake_past,A,Wizard,smell,smelled,Regular,wizard_shake_bottle_v3.png,past,The Wizard smelled a flower,NULL
1771275823,ecad2e108efa1e3217094bdbb53ccb7f,PennController,87,0,filler,NULL,PennController,88,_Header_,Start,1771275559220,4679,26,psych,51760,26,4679,ctrl_wrong_Wizard_shake_past,A,Wizard,smell,smelled,Regular,wizard_shake_bottle_v3.png,past,The Wizard smelled a flower,NULL
1771275823,ecad2e108efa1e3217094bdbb53ccb7f,PennController,87,0,filler,NULL,PennController,88,_Trial_,Start,1771275559220,4679,26,psych,51760,26,4679,ctrl_wrong_Wizard_shake_past,A,Wizard,smell,smelled,Regular,wizard_shake_bottle_v3.png,past,The Wizard smelled a flower,NULL
1771275823,ecad2e108efa1e3217094bdbb53ccb7f,PennController,87,0,filler,NULL,Scale,rating,Choice,2,1771275564307,4679,26,psych,51760,26,4679,ctrl_wrong_Wizard_shake_past,A,Wizard,smell,smelled,Regular,wizard_shake_bottle_v3.png,past,The Wizard smelled a flower,NULL
1771275823,ecad2e108efa1e3217094bdbb53ccb7f,PennController,87,0,filler,NULL,PennController,88,_Trial_,End,1771275564717,4679,26,psych,51760,26,4679,ctrl_wrong_Wizard_shake_past,A,Wizard,smell,smelled,Regular,wizard_shake_bottle_v3.png,past,The Wizard smelled a flower,NULL
1771275823,ecad2e108efa1e3217094bdbb53ccb7f,PennController,41,0,experiment,NULL,PennController,42,_Header_,End,1771275564719,2447,27,psych,51760,27,2447,Pirate_paint,A,Pirate,paint,painted,Regular,pirate_paint_canvas_v2.png,past,The Pirate painted a canvas,NULL
1771275823,ecad2e108efa1e3217094bdbb53ccb7f,PennController,41,0,experiment,NULL,PennController,42,_Header_,Start,1771275564719,2447,27,psych,51760,27,2447,Pirate_paint,A,Pirate,paint,painted,Regular,pirate_paint_canvas_v2.png,past,The Pirate painted a canvas,NULL
1771275823,ecad2e108efa1e3217094bdbb53ccb7f,PennController,41,0,experiment,NULL,PennController,42,_Trial_,Start,1771275564719,2447,27,psych,51760,27,2447,Pirate_paint,A,Pirate,paint,painted,Regular,pirate_paint_canvas_v2.png,past,The Pirate painted a canvas,NULL
1771275823,ecad2e108efa1e3217094bdbb53ccb7f,PennController,41,0,experiment,NULL,Scale,rating,Choice,7,1771275567572,2447,27,psych,51760,27,2447,Pirate_paint,A,Pirate,paint,painted,Regular,pirate_paint_canvas_v2.png,past,The Pirate painted a canvas,NULL
1771275823,ecad2e108efa1e3217094bdbb53ccb7f,PennController,41,0,experiment,NULL,PennController,42,_Trial_,End,1771275567982,2447,27,psych,51760,27,2447,Pirate_paint,A,Pirate,paint,painted,Regular,pirate_paint_canvas_v2.png,past,The Pirate painted a canvas,NULL
1771275823,ecad2e108efa1e3217094bdbb53ccb7f,PennController,57,0,experiment,NULL,PennController,58,_Header_,End,1771275567985,3453,28,psych,51760,28,3453,Wizard_dig,A,Wizard,dig,dug,Irregular,wizard_dig_hole_v4.png,past,The Wizard dug a hole,NULL
1771275823,ecad2e108efa1e3217094bdbb53ccb7f,PennController,57,0,experiment,NULL,PennController,58,_Header_,Start,1771275567985,3453,28,psych,51760,28,3453,Wizard_dig,A,Wizard,dig,dug,Irregular,wizard_dig_hole_v4.png,past,The Wizard dug a hole,NULL
1771275823,ecad2e108efa1e3217094bdbb53ccb7f,PennController,57,0,experiment,NULL,PennController,58,_Trial_,Start,1771275567985,3453,28,psych,51760,28,3453,Wizard_dig,A,Wizard,dig,dug,Irregular,wizard_dig_hole_v4.png,past,The Wizard dug a hole,NULL
1771275823,ecad2e108efa1e3217094bdbb53ccb7f,PennController,57,0,experiment,NULL,Scale,rating,Choice,7,1771275571841,3453,28,psych,51760,28,3453,Wizard_dig,A,Wizard,dig,dug,Irregular,wizard_dig_hole_v4.png,past,The Wizard dug a hole,NULL
1771275823,ecad2e108efa1e3217094bdbb53ccb7f,PennController,57,0,experiment,NULL,PennController,58,_Trial_,End,1771275572245,3453,28,psych,51760,28,3453,Wizard_dig,A,Wizard,dig,dug,Irregular,wizard_dig_hole_v4.png,past,The Wizard dug a hole,NULL
1771275823,ecad2e108efa1e3217094bdbb53ccb7f,PennController,48,0,experiment,NULL,PennController,49,_Header_,End,1771275572249,2492,29,psych,51760,29,2492,Pirate_smell,A,Pirate,smell,smelled,Regular,pirate_smell_flower_v3.png,future,The Pirate will smell a flower,NULL
1771275823,ecad2e108efa1e3217094bdbb53ccb7f,PennController,48,0,experiment,NULL,PennController,49,_Header_,Start,1771275572249,2492,29,psych,51760,29,2492,Pirate_smell,A,Pirate,smell,smelled,Regular,pirate_smell_flower_v3.png,future,The Pirate will smell a flower,NULL
1771275823,ecad2e108efa1e3217094bdbb53ccb7f,PennController,48,0,experiment,NULL,PennController,49,_Trial_,Start,1771275572249,2492,29,psych,51760,29,2492,Pirate_smell,A,Pirate,smell,smelled,Regular,pirate_smell_flower_v3.png,future,The Pirate will smell a flower,NULL
1771275823,ecad2e108efa1e3217094bdbb53ccb7f,PennController,48,0,experiment,NULL,Scale,rating,Choice,6,1771275575145,2492,29,psych,51760,29,2492,Pirate_smell,A,Pirate,smell,smelled,Regular,pirate_smell_flower_v3.png,future,The Pirate will smell a flower,NULL
1771275823,ecad2e108efa1e3217094bdbb53ccb7f,PennController,48,0,experiment,NULL,PennController,49,_Trial_,End,1771275575553,2492,29,psych,51760,29,2492,Pirate_smell,A,Pirate,smell,smelled,Regular,pirate_smell_flower_v3.png,future,The Pirate will smell a flower,NULL
1771275823,ecad2e108efa1e3217094bdbb53ccb7f,PennController,89,0,filler,NULL,PennController,90,_Header_,End,1771275575555,3178,30,psych,51760,30,3178,ctrl_wrong_Pirate_spin_past,A,Pirate,stir,stirred,Regular,pirate_spin_top_v5.png,past,The Pirate stirred a pot,NULL
1771275823,ecad2e108efa1e3217094bdbb53ccb7f,PennController,89,0,filler,NULL,PennController,90,_Header_,Start,1771275575555,3178,30,psych,51760,30,3178,ctrl_wrong_Pirate_spin_past,A,Pirate,stir,stirred,Regular,pirate_spin_top_v5.png,past,The Pirate stirred a pot,NULL
1771275823,ecad2e108efa1e3217094bdbb53ccb7f,PennController,89,0,filler,NULL,PennController,90,_Trial_,Start,1771275575555,3178,30,psych,51760,30,3178,ctrl_wrong_Pirate_spin_past,A,Pirate,stir,stirred,Regular,pirate_spin_top_v5.png,past,The Pirate stirred a pot,NULL
1771275823,ecad2e108efa1e3217094bdbb53ccb7f,PennController,89,0,filler,NULL,Scale,rating,Choice,2,1771275579137,3178,30,psych,51760,30,3178,ctrl_wrong_Pirate_spin_past,A,Pirate,stir,stirred,Regular,pirate_spin_top_v5.png,past,The Pirate stirred a pot,NULL
1771275823,ecad2e108efa1e3217094bdbb53ccb7f,PennController,89,0,filler,NULL,PennController,90,_Trial_,End,1771275579542,3178,30,psych,51760,30,3178,ctrl_wrong_Pirate_spin_past,A,Pirate,stir,stirred,Regular,pirate_spin_top_v5.png,past,The Pirate stirred a pot,NULL
1771275823,ecad2e108efa1e3217094bdbb53ccb7f,PennController,16,0,experiment,NULL,PennController,17,_Header_,End,1771275579545,2488,31,psych,51760,31,2488,Chef_climb,A,Chef,climb,climbed,Regular,chef_climb_ladder_v2.png,future,The Chef will climb a ladder,NULL
1771275823,ecad2e108efa1e3217094bdbb53ccb7f,PennController,16,0,experiment,NULL,PennController,17,_Header_,Start,1771275579545,2488,31,psych,51760,31,2488,Chef_climb,A,Chef,climb,climbed,Regular,chef_climb_ladder_v2.png,future,The Chef will climb a ladder,NULL
1771275823,ecad2e108efa1e3217094bdbb53ccb7f,PennController,16,0,experiment,NULL,PennController,17,_Trial_,Start,1771275579545,2488,31,psych,51760,31,2488,Chef_climb,A,Chef,climb,climbed,Regular,chef_climb_ladder_v2.png,future,The Chef will climb a ladder,NULL
1771275823,ecad2e108efa1e3217094bdbb53ccb7f,PennController,16,0,experiment,NULL,Scale,rating,Choice,6,1771275582440,2488,31,psych,51760,31,2488,Chef_climb,A,Chef,climb,climbed,Regular,chef_climb_ladder_v2.png,future,The Chef will climb a ladder,NULL
1771275823,ecad2e108efa1e3217094bdbb53ccb7f,PennController,16,0,experiment,NULL,PennController,17,_Trial_,End,1771275582848,2488,31,psych,51760,31,2488,Chef_climb,A,Chef,climb,climbed,Regular,chef_climb_ladder_v2.png,future,The Chef will climb a ladder,NULL
1771275823,ecad2e108efa1e3217094bdbb53ccb7f,PennController,47,0,experiment,NULL,PennController,48,_Header_,End,1771275582851,2469,32,psych,51760,32,2469,Pirate_shake,A,Pirate,shake,shook,Irregular,pirate_shake_bottle_v4.png,past,The Pirate shook a bottle,NULL
1771275823,ecad2e108efa1e3217094bdbb53ccb7f,PennController,47,0,experiment,NULL,PennController,48,_Header_,Start,1771275582851,2469,32,psych,51760,32,2469,Pirate_shake,A,Pirate,shake,shook,Irregular,pirate_shake_bottle_v4.png,past,The Pirate shook a bottle,NULL
1771275823,ecad2e108efa1e3217094bdbb53ccb7f,PennController,47,0,experiment,NULL,PennController,48,_Trial_,Start,1771275582851,2469,32,psych,51760,32,2469,Pirate_shake,A,Pirate,shake,shook,Irregular,pirate_shake_bottle_v4.png,past,The Pirate shook a bottle,NULL
1771275823,ecad2e108efa1e3217094bdbb53ccb7f,PennController,47,0,experiment,NULL,Scale,rating,Choice,7,1771275585726,2469,32,psych,51760,32,2469,Pirate_shake,A,Pirate,shake,shook,Irregular,pirate_shake_bottle_v4.png,past,The Pirate shook a bottle,NULL
1771275823,ecad2e108efa1e3217094bdbb53ccb7f,PennController,47,0,experiment,NULL,PennController,48,_Trial_,End,1771275586132,2469,32,psych,51760,32,2469,Pirate_shake,A,Pirate,shake,shook,Irregular,pirate_shake_bottle_v4.png,past,The Pirate shook a bottle,NULL
1771275823,ecad2e108efa1e3217094bdbb53ccb7f,PennController,62,0,experiment,NULL,PennController,63,_Header_,End,1771275586134,3014,33,psych,51760,33,3014,Wizard_peel,A,Wizard,peel,peeled,Regular,wizard_peel_banana_v1.png,future,The Wizard will peel a banana,NULL
1771275823,ecad2e108efa1e3217094bdbb53ccb7f,PennController,62,0,experiment,NULL,PennController,63,_Header_,Start,1771275586134,3014,33,psych,51760,33,3014,Wizard_peel,A,Wizard,peel,peeled,Regular,wizard_peel_banana_v1.png,future,The Wizard will peel a banana,NULL
1771275823,ecad2e108efa1e3217094bdbb53ccb7f,PennController,62,0,experiment,NULL,PennController,63,_Trial_,Start,1771275586134,3014,33,psych,51760,33,3014,Wizard_peel,A,Wizard,peel,peeled,Regular,wizard_peel_banana_v1.png,future,The Wizard will peel a banana,NULL
1771275823,ecad2e108efa1e3217094bdbb53ccb7f,PennController,62,0,experiment,NULL,Scale,rating,Choice,6,1771275589552,3014,33,psych,51760,33,3014,Wizard_peel,A,Wizard,peel,peeled,Regular,wizard_peel_banana_v1.png,future,The Wizard will peel a banana,NULL
1771275823,ecad2e108efa1e3217094bdbb53ccb7f,PennController,62,0,experiment,NULL,PennController,63,_Trial_,End,1771275589959,3014,33,psych,51760,33,3014,Wizard_peel,A,Wizard,peel,peeled,Regular,wizard_peel_banana_v1.png,future,The Wizard will peel a banana,NULL
1771275823,ecad2e108efa1e3217094bdbb53ccb7f,PennController,75,0,filler,NULL,PennController,76,_Header_,End,1771275589963,7196,34,psych,51760,34,7196,ctrl_wrong_Wizard_carry_past,A,Wizard,climb,climbed,Regular,wizard_carry_box_v1.png,past,The Wizard climbed a ladder,NULL
1771275823,ecad2e108efa1e3217094bdbb53ccb7f,PennController,75,0,filler,NULL,PennController,76,_Header_,Start,1771275589963,7196,34,psych,51760,34,7196,ctrl_wrong_Wizard_carry_past,A,Wizard,climb,climbed,Regular,wizard_carry_box_v1.png,past,The Wizard climbed a ladder,NULL
1771275823,ecad2e108efa1e3217094bdbb53ccb7f,PennController,75,0,filler,NULL,PennController,76,_Trial_,Start,1771275589963,7196,34,psych,51760,34,7196,ctrl_wrong_Wizard_carry_past,A,Wizard,climb,climbed,Regular,wizard_carry_box_v1.png,past,The Wizard climbed a ladder,NULL
1771275823,ecad2e108efa1e3217094bdbb53ccb7f,PennController,75,0,filler,NULL,Scale,rating,Choice,2,1771275597567,7196,34,psych,51760,34,7196,ctrl_wrong_Wizard_carry_past,A,Wizard,climb,climbed,Regular,wizard_carry_box_v1.png,past,The Wizard climbed a ladder,NULL
1771275823,ecad2e108efa1e3217094bdbb53ccb7f,PennController,75,0,filler,NULL,PennController,76,_Trial_,End,1771275597970,7196,34,psych,51760,34,7196,ctrl_wrong_Wizard_carry_past,A,Wizard,climb,climbed,Regular,wizard_carry_box_v1.png,past,The Wizard climbed a ladder,NULL
1771275823,ecad2e108efa1e3217094bdbb53ccb7f,PennController,14,0,experiment,NULL,PennController,15,_Header_,End,1771275597972,2573,35,psych,51760,35,2573,Chef_build,A,Chef,build,built,Irregular,chef_build_tower_v1.png,future,The Chef will build a tower,NULL
1771275823,ecad2e108efa1e3217094bdbb53ccb7f,PennController,14,0,experiment,NULL,PennController,15,_Header_,Start,1771275597972,2573,35,psych,51760,35,2573,Chef_build,A,Chef,build,built,Irregular,chef_build_tower_v1.png,future,The Chef will build a tower,NULL
1771275823,ecad2e108efa1e3217094bdbb53ccb7f,PennController,14,0,experiment,NULL,PennController,15,_Trial_,Start,1771275597972,2573,35,psych,51760,35,2573,Chef_build,A,Chef,build,built,Irregular,chef_build_tower_v1.png,future,The Chef will build a tower,NULL
1771275823,ecad2e108efa1e3217094bdbb53ccb7f,PennController,14,0,experiment,NULL,Scale,rating,Choice,6,1771275600953,2573,35,psych,51760,35,2573,Chef_build,A,Chef,build,built,Irregular,chef_build_tower_v1.png,future,The Chef will build a tower,NULL
1771275823,ecad2e108efa1e3217094bdbb53ccb7f,PennController,14,0,experiment,NULL,PennController,15,_Trial_,End,1771275601357,2573,35,psych,51760,35,2573,Chef_build,A,Chef,build,built,Irregular,chef_build_tower_v1.png,future,The Chef will build a tower,NULL
1771275823,ecad2e108efa1e3217094bdbb53ccb7f,PennController,22,0,experiment,NULL,PennController,23,_Header_,End,1771275601359,6471,36,psych,51760,36,6471,Chef_peel,A,Chef,peel,peeled,Regular,chef_peel_banana_v5.png,future,The Chef will peel a banana,NULL
1771275823,ecad2e108efa1e3217094bdbb53ccb7f,PennController,22,0,experiment,NULL,PennController,23,_Header_,Start,1771275601359,6471,36,psych,51760,36,6471,Chef_peel,A,Chef,peel,peeled,Regular,chef_peel_banana_v5.png,future,The Chef will peel a banana,NULL
1771275823,ecad2e108efa1e3217094bdbb53ccb7f,PennController,22,0,experiment,NULL,PennController,23,_Trial_,Start,1771275601359,6471,36,psych,51760,36,6471,Chef_peel,A,Chef,peel,peeled,Regular,chef_peel_banana_v5.png,future,The Chef will peel a banana,NULL
1771275823,ecad2e108efa1e3217094bdbb53ccb7f,PennController,22,0,experiment,NULL,Scale,rating,Choice,6,1771275608240,6471,36,psych,51760,36,6471,Chef_peel,A,Chef,peel,peeled,Regular,chef_peel_banana_v5.png,future,The Chef will peel a banana,NULL
1771275823,ecad2e108efa1e3217094bdbb53ccb7f,PennController,22,0,experiment,NULL,PennController,23,_Trial_,End,1771275608643,6471,36,psych,51760,36,6471,Chef_peel,A,Chef,peel,peeled,Regular,chef_peel_banana_v5.png,future,The Chef will peel a banana,NULL
1771275823,ecad2e108efa1e3217094bdbb53ccb7f,PennController,58,0,experiment,NULL,PennController,59,_Header_,End,1771275608645,2396,37,psych,51760,37,2396,Wizard_drag,A,Wizard,drag,dragged,Practice,wizard_drag_sack_v1.png,future,The Wizard will drag a sack,NULL
1771275823,ecad2e108efa1e3217094bdbb53ccb7f,PennController,58,0,experiment,NULL,PennController,59,_Header_,Start,1771275608645,2396,37,psych,51760,37,2396,Wizard_drag,A,Wizard,drag,dragged,Practice,wizard_drag_sack_v1.png,future,The Wizard will drag a sack,NULL
1771275823,ecad2e108efa1e3217094bdbb53ccb7f,PennController,58,0,experiment,NULL,PennController,59,_Trial_,Start,1771275608645,2396,37,psych,51760,37,2396,Wizard_drag,A,Wizard,drag,dragged,Practice,wizard_drag_sack_v1.png,future,The Wizard will drag a sack,NULL
1771275823,ecad2e108efa1e3217094bdbb53ccb7f,PennController,58,0,experiment,NULL,Scale,rating,Choice,6,1771275611450,2396,37,psych,51760,37,2396,Wizard_drag,A,Wizard,drag,dragged,Practice,wizard_drag_sack_v1.png,future,The Wizard will drag a sack,NULL
1771275823,ecad2e108efa1e3217094bdbb53ccb7f,PennController,58,0,experiment,NULL,PennController,59,_Trial_,End,1771275612002,2396,37,psych,51760,37,2396,Wizard_drag,A,Wizard,drag,dragged,Practice,wizard_drag_sack_v1.png,future,The Wizard will drag a sack,NULL
1771275823,ecad2e108efa1e3217094bdbb53ccb7f,PennController,79,0,filler,NULL,PennController,80,_Header_,End,1771275612004,3895,38,psych,51760,38,3895,ctrl_wrong_Chef_drink_past,A,Chef,eat,ate,Irregular,chef_drink_coffee_v1.png,past,The Chef ate an apple,NULL
1771275823,ecad2e108efa1e3217094bdbb53ccb7f,PennController,79,0,filler,NULL,PennController,80,_Header_,Start,1771275612004,3895,38,psych,51760,38,3895,ctrl_wrong_Chef_drink_past,A,Chef,eat,ate,Irregular,chef_drink_coffee_v1.png,past,The Chef ate an apple,NULL
1771275823,ecad2e108efa1e3217094bdbb53ccb7f,PennController,79,0,filler,NULL,PennController,80,_Trial_,Start,1771275612004,3895,38,psych,51760,38,3895,ctrl_wrong_Chef_drink_past,A,Chef,eat,ate,Irregular,chef_drink_coffee_v1.png,past,The Chef ate an apple,NULL
1771275823,ecad2e108efa1e3217094bdbb53ccb7f,PennController,79,0,filler,NULL,Scale,rating,Choice,2,1771275616302,3895,38,psych,51760,38,3895,ctrl_wrong_Chef_drink_past,A,Chef,eat,ate,Irregular,chef_drink_coffee_v1.png,past,The Chef ate an apple,NULL
1771275823,ecad2e108efa1e3217094bdbb53ccb7f,PennController,79,0,filler,NULL,PennController,80,_Trial_,End,1771275616709,3895,38,psych,51760,38,3895,ctrl_wrong_Chef_drink_past,A,Chef,eat,ate,Irregular,chef_drink_coffee_v1.png,past,The Chef ate an apple,NULL
1771275823,ecad2e108efa1e3217094bdbb53ccb7f,PennController,21,0,experiment,NULL,PennController,22,_Header_,End,1771275616713,3905,39,psych,51760,39,3905,Chef_paint,A,Chef,paint,painted,Regular,chef_paint_canvas_v3.png,past,The Chef painted a canvas,NULL
1771275823,ecad2e108efa1e3217094bdbb53ccb7f,PennController,21,0,experiment,NULL,PennController,22,_Header_,Start,1771275616713,3905,39,psych,51760,39,3905,Chef_paint,A,Chef,paint,painted,Regular,chef_paint_canvas_v3.png,past,The Chef painted a canvas,NULL
1771275823,ecad2e108efa1e3217094bdbb53ccb7f,PennController,21,0,experiment,NULL,PennController,22,_Trial_,Start,1771275616713,3905,39,psych,51760,39,3905,Chef_paint,A,Chef,paint,painted,Regular,chef_paint_canvas_v3.png,past,The Chef painted a canvas,NULL
1771275823,ecad2e108efa1e3217094bdbb53ccb7f,PennController,21,0,experiment,NULL,Scale,rating,Choice,7,1771275621027,3905,39,psych,51760,39,3905,Chef_paint,A,Chef,paint,painted,Regular,chef_paint_canvas_v3.png,past,The Chef painted a canvas,NULL
1771275823,ecad2e108efa1e3217094bdbb53ccb7f,PennController,21,0,experiment,NULL,PennController,22,_Trial_,End,1771275621430,3905,39,psych,51760,39,3905,Chef_paint,A,Chef,paint,painted,Regular,chef_paint_canvas_v3.png,past,The Chef painted a canvas,NULL
1771275823,ecad2e108efa1e3217094bdbb53ccb7f,PennController,40,0,experiment,NULL,PennController,41,_Header_,End,1771275621432,3012,40,psych,51760,40,3012,Pirate_eat,A,Pirate,eat,ate,Irregular,pirate_eat_apple_v5.png,future,The Pirate will eat an apple,NULL
1771275823,ecad2e108efa1e3217094bdbb53ccb7f,PennController,40,0,experiment,NULL,PennController,41,_Header_,Start,1771275621432,3012,40,psych,51760,40,3012,Pirate_eat,A,Pirate,eat,ate,Irregular,pirate_eat_apple_v5.png,future,The Pirate will eat an apple,NULL
1771275823,ecad2e108efa1e3217094bdbb53ccb7f,PennController,40,0,experiment,NULL,PennController,41,_Trial_,Start,1771275621432,3012,40,psych,51760,40,3012,Pirate_eat,A,Pirate,eat,ate,Irregular,pirate_eat_apple_v5.png,future,The Pirate will eat an apple,NULL
1771275823,ecad2e108efa1e3217094bdbb53ccb7f,PennController,40,0,experiment,NULL,Scale,rating,Choice,6,1771275624848,3012,40,psych,51760,40,3012,Pirate_eat,A,Pirate,eat,ate,Irregular,pirate_eat_apple_v5.png,future,The Pirate will eat an apple,NULL
1771275823,ecad2e108efa1e3217094bdbb53ccb7f,PennController,40,0,experiment,NULL,PennController,41,_Trial_,End,1771275625258,3012,40,psych,51760,40,3012,Pirate_eat,A,Pirate,eat,ate,Irregular,pirate_eat_apple_v5.png,future,The Pirate will eat an apple,NULL
1771275823,ecad2e108efa1e3217094bdbb53ccb7f,PennController,69,0,experiment,NULL,PennController,70,_Header_,End,1771275625261,2626,41,psych,51760,41,2626,Wizard_spin,A,Wizard,spin,spun,Practice,wizard_spin_top_v5.png,past,The Wizard spun a top,NULL
1771275823,ecad2e108efa1e3217094bdbb53ccb7f,PennController,69,0,experiment,NULL,PennController,70,_Header_,Start,1771275625261,2626,41,psych,51760,41,2626,Wizard_spin,A,Wizard,spin,spun,Practice,wizard_spin_top_v5.png,past,The Wizard spun a top,NULL
1771275823,ecad2e108efa1e3217094bdbb53ccb7f,PennController,69,0,experiment,NULL,PennController,70,_Trial_,Start,1771275625261,2626,41,psych,51760,41,2626,Wizard_spin,A,Wizard,spin,spun,Practice,wizard_spin_top_v5.png,past,The Wizard spun a top,NULL
1771275823,ecad2e108efa1e3217094bdbb53ccb7f,PennController,69,0,experiment,NULL,Scale,rating,Choice,7,1771275628295,2626,41,psych,51760,41,2626,Wizard_spin,A,Wizard,spin,spun,Practice,wizard_spin_top_v5.png,past,The Wizard spun a top,NULL
1771275823,ecad2e108efa1e3217094bdbb53ccb7f,PennController,69,0,experiment,NULL,PennController,70,_Trial_,End,1771275628703,2626,41,psych,51760,41,2626,Wizard_spin,A,Wizard,spin,spun,Practice,wizard_spin_top_v5.png,past,The Wizard spun a top,NULL
1771275823,ecad2e108efa1e3217094bdbb53ccb7f,PennController,92,0,filler,NULL,PennController,93,_Header_,End,1771275628706,2686,42,psych,51760,42,2686,ctrl_wrong_Pirate_wash_future,A,Pirate,blow,blew,Irregular,pirate_wash_dish_v3.png,future,The Pirate will blow bubbles,NULL
1771275823,ecad2e108efa1e3217094bdbb53ccb7f,PennController,92,0,filler,NULL,PennController,93,_Header_,Start,1771275628706,2686,42,psych,51760,42,2686,ctrl_wrong_Pirate_wash_future,A,Pirate,blow,blew,Irregular,pirate_wash_dish_v3.png,future,The Pirate will blow bubbles,NULL
1771275823,ecad2e108efa1e3217094bdbb53ccb7f,PennController,92,0,filler,NULL,PennController,93,_Trial_,Start,1771275628706,2686,42,psych,51760,42,2686,ctrl_wrong_Pirate_wash_future,A,Pirate,blow,blew,Irregular,pirate_wash_dish_v3.png,future,The Pirate will blow bubbles,NULL
1771275823,ecad2e108efa1e3217094bdbb53ccb7f,PennController,92,0,filler,NULL,Scale,rating,Choice,2,1771275631797,2686,42,psych,51760,42,2686,ctrl_wrong_Pirate_wash_future,A,Pirate,blow,blew,Irregular,pirate_wash_dish_v3.png,future,The Pirate will blow bubbles,NULL
1771275823,ecad2e108efa1e3217094bdbb53ccb7f,PennController,92,0,filler,NULL,PennController,93,_Trial_,End,1771275632207,2686,42,psych,51760,42,2686,ctrl_wrong_Pirate_wash_future,A,Pirate,blow,blew,Irregular,pirate_wash_dish_v3.png,future,The Pirate will blow bubbles,NULL
1771275823,ecad2e108efa1e3217094bdbb53ccb7f,PennController,31,0,experiment,NULL,PennController,32,_Header_,End,1771275632211,3421,43,psych,51760,43,3421,Chef_sweep,A,Chef,sweep,swept,Irregular,chef_sweep_floor_v1.png,past,The Chef swept the floor,NULL
1771275823,ecad2e108efa1e3217094bdbb53ccb7f,PennController,31,0,experiment,NULL,PennController,32,_Header_,Start,1771275632211,3421,43,psych,51760,43,3421,Chef_sweep,A,Chef,sweep,swept,Irregular,chef_sweep_floor_v1.png,past,The Chef swept the floor,NULL
1771275823,ecad2e108efa1e3217094bdbb53ccb7f,PennController,31,0,experiment,NULL,PennController,32,_Trial_,Start,1771275632211,3421,43,psych,51760,43,3421,Chef_sweep,A,Chef,sweep,swept,Irregular,chef_sweep_floor_v1.png,past,The Chef swept the floor,NULL
1771275823,ecad2e108efa1e3217094bdbb53ccb7f,PennController,31,0,experiment,NULL,Scale,rating,Choice,7,1771275636041,3421,43,psych,51760,43,3421,Chef_sweep,A,Chef,sweep,swept,Irregular,chef_sweep_floor_v1.png,past,The Chef swept the floor,NULL
1771275823,ecad2e108efa1e3217094bdbb53ccb7f,PennController,31,0,experiment,NULL,PennController,32,_Trial_,End,1771275636450,3421,43,psych,51760,43,3421,Chef_sweep,A,Chef,sweep,swept,Irregular,chef_sweep_floor_v1.png,past,The Chef swept the floor,NULL
1771275823,ecad2e108efa1e3217094bdbb53ccb7f,PennController,20,0,experiment,NULL,PennController,21,_Header_,End,1771275636454,3871,44,psych,51760,44,3871,Chef_eat,A,Chef,eat,ate,Irregular,chef_eat_apple_v1.png,future,The Chef will eat an apple,NULL
1771275823,ecad2e108efa1e3217094bdbb53ccb7f,PennController,20,0,experiment,NULL,PennController,21,_Header_,Start,1771275636454,3871,44,psych,51760,44,3871,Chef_eat,A,Chef,eat,ate,Irregular,chef_eat_apple_v1.png,future,The Chef will eat an apple,NULL
1771275823,ecad2e108efa1e3217094bdbb53ccb7f,PennController,20,0,experiment,NULL,PennController,21,_Trial_,Start,1771275636454,3871,44,psych,51760,44,3871,Chef_eat,A,Chef,eat,ate,Irregular,chef_eat_apple_v1.png,future,The Chef will eat an apple,NULL
1771275823,ecad2e108efa1e3217094bdbb53ccb7f,PennController,20,0,experiment,NULL,Scale,rating,Choice,6,1771275640732,3871,44,psych,51760,44,3871,Chef_eat,A,Chef,eat,ate,Irregular,chef_eat_apple_v1.png,future,The Chef will eat an apple,NULL
1771275823,ecad2e108efa1e3217094bdbb53ccb7f,PennController,20,0,experiment,NULL,PennController,21,_Trial_,End,1771275641141,3871,44,psych,51760,44,3871,Chef_eat,A,Chef,eat,ate,Irregular,chef_eat_apple_v1.png,future,The Chef will eat an apple,NULL
# 17. Comments.
1771275823,ecad2e108efa1e3217094bdbb53ccb7f,PennController,12,0,break,NULL,PennController,11,_Header_,End,1771275641145,3871,44,psych,51760,NULL
1771275823,ecad2e108efa1e3217094bdbb53ccb7f,PennController,12,0,break,NULL,PennController,11,_Header_,Start,1771275641145,3871,44,psych,51760,NULL
1771275823,ecad2e108efa1e3217094bdbb53ccb7f,PennController,12,0,break,NULL,PennController,11,_Trial_,Start,1771275641145,3871,44,psych,51760,NULL
1771275823,ecad2e108efa1e3217094bdbb53ccb7f,PennController,12,0,break,NULL,PennController,11,_Trial_,End,1771275691859,3871,44,psych,51760,NULL
# 17. trialN.
# 18. RT-answer.
# 19. item_id.
# 20. group.
# 21. character.
# 22. verb.
# 23. past_form.
# 24. type.
# 25. picture.
# 26. tense.
# 27. sentence.
# 28. Comments.
1771275823,ecad2e108efa1e3217094bdbb53ccb7f,PennController,52,0,experiment,NULL,PennController,53,_Header_,End,1771275691860,2709,45,psych,51760,45,2709,Pirate_wash,A,Pirate,wash,washed,Regular,pirate_wash_dish_v3.png,future,The Pirate will wash a dish,NULL
1771275823,ecad2e108efa1e3217094bdbb53ccb7f,PennController,52,0,experiment,NULL,PennController,53,_Header_,Start,1771275691860,2709,45,psych,51760,45,2709,Pirate_wash,A,Pirate,wash,washed,Regular,pirate_wash_dish_v3.png,future,The Pirate will wash a dish,NULL
1771275823,ecad2e108efa1e3217094bdbb53ccb7f,PennController,52,0,experiment,NULL,PennController,53,_Trial_,Start,1771275691860,2709,45,psych,51760,45,2709,Pirate_wash,A,Pirate,wash,washed,Regular,pirate_wash_dish_v3.png,future,The Pirate will wash a dish,NULL
1771275823,ecad2e108efa1e3217094bdbb53ccb7f,PennController,52,0,experiment,NULL,Scale,rating,Choice,6,1771275694976,2709,45,psych,51760,45,2709,Pirate_wash,A,Pirate,wash,washed,Regular,pirate_wash_dish_v3.png,future,The Pirate will wash a dish,NULL
1771275823,ecad2e108efa1e3217094bdbb53ccb7f,PennController,52,0,experiment,NULL,PennController,53,_Trial_,End,1771275695382,2709,45,psych,51760,45,2709,Pirate_wash,A,Pirate,wash,washed,Regular,pirate_wash_dish_v3.png,future,The Pirate will wash a dish,NULL
1771275823,ecad2e108efa1e3217094bdbb53ccb7f,PennController,85,0,filler,NULL,PennController,86,_Header_,End,1771275695384,2304,46,psych,51760,46,2304,ctrl_wrong_Chef_read_past,A,Chef,ride,rode,Irregular,chef_read_book_v2.png,past,The Chef rode a bicycle,NULL
1771275823,ecad2e108efa1e3217094bdbb53ccb7f,PennController,85,0,filler,NULL,PennController,86,_Header_,Start,1771275695384,2304,46,psych,51760,46,2304,ctrl_wrong_Chef_read_past,A,Chef,ride,rode,Irregular,chef_read_book_v2.png,past,The Chef rode a bicycle,NULL
1771275823,ecad2e108efa1e3217094bdbb53ccb7f,PennController,85,0,filler,NULL,PennController,86,_Trial_,Start,1771275695384,2304,46,psych,51760,46,2304,ctrl_wrong_Chef_read_past,A,Chef,ride,rode,Irregular,chef_read_book_v2.png,past,The Chef rode a bicycle,NULL
1771275823,ecad2e108efa1e3217094bdbb53ccb7f,PennController,85,0,filler,NULL,Scale,rating,Choice,2,1771275698091,2304,46,psych,51760,46,2304,ctrl_wrong_Chef_read_past,A,Chef,ride,rode,Irregular,chef_read_book_v2.png,past,The Chef rode a bicycle,NULL
1771275823,ecad2e108efa1e3217094bdbb53ccb7f,PennController,85,0,filler,NULL,PennController,86,_Trial_,End,1771275698498,2304,46,psych,51760,46,2304,ctrl_wrong_Chef_read_past,A,Chef,ride,rode,Irregular,chef_read_book_v2.png,past,The Chef rode a bicycle,NULL
1771275823,ecad2e108efa1e3217094bdbb53ccb7f,PennController,29,0,experiment,NULL,PennController,30,_Header_,End,1771275698501,2851,47,psych,51760,47,2851,Chef_spin,A,Chef,spin,spun,Practice,chef_spin_top_v3.png,past,The Chef spun a top,NULL
1771275823,ecad2e108efa1e3217094bdbb53ccb7f,PennController,29,0,experiment,NULL,PennController,30,_Header_,Start,1771275698501,2851,47,psych,51760,47,2851,Chef_spin,A,Chef,spin,spun,Practice,chef_spin_top_v3.png,past,The Chef spun a top,NULL
1771275823,ecad2e108efa1e3217094bdbb53ccb7f,PennController,29,0,experiment,NULL,PennController,30,_Trial_,Start,1771275698501,2851,47,psych,51760,47,2851,Chef_spin,A,Chef,spin,spun,Practice,chef_spin_top_v3.png,past,The Chef spun a top,NULL
1771275823,ecad2e108efa1e3217094bdbb53ccb7f,PennController,29,0,experiment,NULL,Scale,rating,Choice,7,1771275701762,2851,47,psych,51760,47,2851,Chef_spin,A,Chef,spin,spun,Practice,chef_spin_top_v3.png,past,The Chef spun a top,NULL
1771275823,ecad2e108efa1e3217094bdbb53ccb7f,PennController,29,0,experiment,NULL,PennController,30,_Trial_,End,1771275702164,2851,47,psych,51760,47,2851,Chef_spin,A,Chef,spin,spun,Practice,chef_spin_top_v3.png,past,The Chef spun a top,NULL
1771275823,ecad2e108efa1e3217094bdbb53ccb7f,PennController,36,0,experiment,NULL,PennController,37,_Header_,End,1771275702166,3487,48,psych,51760,48,3487,Pirate_climb,A,Pirate,climb,climbed,Regular,pirate_climb_ladder_v1.png,future,The Pirate will climb a ladder,NULL
1771275823,ecad2e108efa1e3217094bdbb53ccb7f,PennController,36,0,experiment,NULL,PennController,37,_Header_,Start,1771275702166,3487,48,psych,51760,48,3487,Pirate_climb,A,Pirate,climb,climbed,Regular,pirate_climb_ladder_v1.png,future,The Pirate will climb a ladder,NULL
1771275823,ecad2e108efa1e3217094bdbb53ccb7f,PennController,36,0,experiment,NULL,PennController,37,_Trial_,Start,1771275702166,3487,48,psych,51760,48,3487,Pirate_climb,A,Pirate,climb,climbed,Regular,pirate_climb_ladder_v1.png,future,The Pirate will climb a ladder,NULL
1771275823,ecad2e108efa1e3217094bdbb53ccb7f,PennController,36,0,experiment,NULL,Scale,rating,Choice,6,1771275706062,3487,48,psych,51760,48,3487,Pirate_climb,A,Pirate,climb,climbed,Regular,pirate_climb_ladder_v1.png,future,The Pirate will climb a ladder,NULL
1771275823,ecad2e108efa1e3217094bdbb53ccb7f,PennController,36,0,experiment,NULL,PennController,37,_Trial_,End,1771275706465,3487,48,psych,51760,48,3487,Pirate_climb,A,Pirate,climb,climbed,Regular,pirate_climb_ladder_v1.png,future,The Pirate will climb a ladder,NULL
1771275823,ecad2e108efa1e3217094bdbb53ccb7f,PennController,74,0,filler,NULL,PennController,75,_Header_,End,1771275706467,2593,49,psych,51760,49,2593,ctrl_wrong_Pirate_build_future,A,Pirate,carry,carried,Regular,pirate_build_tower_v3.png,future,The Pirate will carry a box,NULL
1771275823,ecad2e108efa1e3217094bdbb53ccb7f,PennController,74,0,filler,NULL,PennController,75,_Header_,Start,1771275706467,2593,49,psych,51760,49,2593,ctrl_wrong_Pirate_build_future,A,Pirate,carry,carried,Regular,pirate_build_tower_v3.png,future,The Pirate will carry a box,NULL
1771275823,ecad2e108efa1e3217094bdbb53ccb7f,PennController,74,0,filler,NULL,PennController,75,_Trial_,Start,1771275706467,2593,49,psych,51760,49,2593,ctrl_wrong_Pirate_build_future,A,Pirate,carry,carried,Regular,pirate_build_tower_v3.png,future,The Pirate will carry a box,NULL
1771275823,ecad2e108efa1e3217094bdbb53ccb7f,PennController,74,0,filler,NULL,Scale,rating,Choice,2,1771275709471,2593,49,psych,51760,49,2593,ctrl_wrong_Pirate_build_future,A,Pirate,carry,carried,Regular,pirate_build_tower_v3.png,future,The Pirate will carry a box,NULL
1771275823,ecad2e108efa1e3217094bdbb53ccb7f,PennController,74,0,filler,NULL,PennController,75,_Trial_,End,1771275709877,2593,49,psych,51760,49,2593,ctrl_wrong_Pirate_build_future,A,Pirate,carry,carried,Regular,pirate_build_tower_v3.png,future,The Pirate will carry a box,NULL
1771275823,ecad2e108efa1e3217094bdbb53ccb7f,PennController,26,0,experiment,NULL,PennController,27,_Header_,Start,1771275709880,3268,50,psych,51760,50,3268,Chef_ride,A,Chef,ride,rode,Irregular,chef_ride_bicycle_v2.png,future,The Chef will ride a bicycle,NULL
1771275823,ecad2e108efa1e3217094bdbb53ccb7f,PennController,26,0,experiment,NULL,PennController,27,_Trial_,Start,1771275709880,3268,50,psych,51760,50,3268,Chef_ride,A,Chef,ride,rode,Irregular,chef_ride_bicycle_v2.png,future,The Chef will ride a bicycle,NULL
1771275823,ecad2e108efa1e3217094bdbb53ccb7f,PennController,26,0,experiment,NULL,PennController,27,_Header_,End,1771275709881,3268,50,psych,51760,50,3268,Chef_ride,A,Chef,ride,rode,Irregular,chef_ride_bicycle_v2.png,future,The Chef will ride a bicycle,NULL
1771275823,ecad2e108efa1e3217094bdbb53ccb7f,PennController,26,0,experiment,NULL,Scale,rating,Choice,6,1771275713560,3268,50,psych,51760,50,3268,Chef_ride,A,Chef,ride,rode,Irregular,chef_ride_bicycle_v2.png,future,The Chef will ride a bicycle,NULL
1771275823,ecad2e108efa1e3217094bdbb53ccb7f,PennController,26,0,experiment,NULL,PennController,27,_Trial_,End,1771275713969,3268,50,psych,51760,50,3268,Chef_ride,A,Chef,ride,rode,Irregular,chef_ride_bicycle_v2.png,future,The Chef will ride a bicycle,NULL
1771275823,ecad2e108efa1e3217094bdbb53ccb7f,PennController,30,0,experiment,NULL,PennController,31,_Header_,End,1771275713971,3071,51,psych,51760,51,3071,Chef_stir,A,Chef,stir,stirred,Regular,chef_stir_pot_v4.png,future,The Chef will stir a pot,NULL
1771275823,ecad2e108efa1e3217094bdbb53ccb7f,PennController,30,0,experiment,NULL,PennController,31,_Header_,Start,1771275713971,3071,51,psych,51760,51,3071,Chef_stir,A,Chef,stir,stirred,Regular,chef_stir_pot_v4.png,future,The Chef will stir a pot,NULL
1771275823,ecad2e108efa1e3217094bdbb53ccb7f,PennController,30,0,experiment,NULL,PennController,31,_Trial_,Start,1771275713971,3071,51,psych,51760,51,3071,Chef_stir,A,Chef,stir,stirred,Regular,chef_stir_pot_v4.png,future,The Chef will stir a pot,NULL
1771275823,ecad2e108efa1e3217094bdbb53ccb7f,PennController,30,0,experiment,NULL,Scale,rating,Choice,6,1771275717450,3071,51,psych,51760,51,3071,Chef_stir,A,Chef,stir,stirred,Regular,chef_stir_pot_v4.png,future,The Chef will stir a pot,NULL
1771275823,ecad2e108efa1e3217094bdbb53ccb7f,PennController,30,0,experiment,NULL,PennController,31,_Trial_,End,1771275717856,3071,51,psych,51760,51,3071,Chef_stir,A,Chef,stir,stirred,Regular,chef_stir_pot_v4.png,future,The Chef will stir a pot,NULL
1771275823,ecad2e108efa1e3217094bdbb53ccb7f,PennController,39,0,experiment,NULL,PennController,40,_Header_,End,1771275717857,1866,52,psych,51760,52,1866,Pirate_drink,A,Pirate,drink,drank,Irregular,pirate_drink_coffee_v2.png,past,The Pirate drank coffee,NULL
1771275823,ecad2e108efa1e3217094bdbb53ccb7f,PennController,39,0,experiment,NULL,PennController,40,_Header_,Start,1771275717857,1866,52,psych,51760,52,1866,Pirate_drink,A,Pirate,drink,drank,Irregular,pirate_drink_coffee_v2.png,past,The Pirate drank coffee,NULL
1771275823,ecad2e108efa1e3217094bdbb53ccb7f,PennController,39,0,experiment,NULL,PennController,40,_Trial_,Start,1771275717857,1866,52,psych,51760,52,1866,Pirate_drink,A,Pirate,drink,drank,Irregular,pirate_drink_coffee_v2.png,past,The Pirate drank coffee,NULL
1771275823,ecad2e108efa1e3217094bdbb53ccb7f,PennController,39,0,experiment,NULL,Scale,rating,Choice,7,1771275720131,1866,52,psych,51760,52,1866,Pirate_drink,A,Pirate,drink,drank,Irregular,pirate_drink_coffee_v2.png,past,The Pirate drank coffee,NULL
1771275823,ecad2e108efa1e3217094bdbb53ccb7f,PennController,39,0,experiment,NULL,PennController,40,_Trial_,End,1771275720533,1866,52,psych,51760,52,1866,Pirate_drink,A,Pirate,drink,drank,Irregular,pirate_drink_coffee_v2.png,past,The Pirate drank coffee,NULL
1771275823,ecad2e108efa1e3217094bdbb53ccb7f,PennController,81,0,filler,NULL,PennController,82,_Header_,End,1771275720536,2851,53,psych,51760,53,2851,ctrl_wrong_Wizard_paint_past,A,Wizard,peel,peeled,Regular,wizard_paint_canvas_v2.png,past,The Wizard peeled a banana,NULL
1771275823,ecad2e108efa1e3217094bdbb53ccb7f,PennController,81,0,filler,NULL,PennController,82,_Header_,Start,1771275720536,2851,53,psych,51760,53,2851,ctrl_wrong_Wizard_paint_past,A,Wizard,peel,peeled,Regular,wizard_paint_canvas_v2.png,past,The Wizard peeled a banana,NULL
1771275823,ecad2e108efa1e3217094bdbb53ccb7f,PennController,81,0,filler,NULL,PennController,82,_Trial_,Start,1771275720536,2851,53,psych,51760,53,2851,ctrl_wrong_Wizard_paint_past,A,Wizard,peel,peeled,Regular,wizard_paint_canvas_v2.png,past,The Wizard peeled a banana,NULL
1771275823,ecad2e108efa1e3217094bdbb53ccb7f,PennController,81,0,filler,NULL,Scale,rating,Choice,2,1771275723792,2851,53,psych,51760,53,2851,ctrl_wrong_Wizard_paint_past,A,Wizard,peel,peeled,Regular,wizard_paint_canvas_v2.png,past,The Wizard peeled a banana,NULL
1771275823,ecad2e108efa1e3217094bdbb53ccb7f,PennController,81,0,filler,NULL,PennController,82,_Trial_,End,1771275724195,2851,53,psych,51760,53,2851,ctrl_wrong_Wizard_paint_past,A,Wizard,peel,peeled,Regular,wizard_paint_canvas_v2.png,past,The Wizard peeled a banana,NULL
1771275823,ecad2e108efa1e3217094bdbb53ccb7f,PennController,32,0,experiment,NULL,PennController,33,_Header_,End,1771275724198,3558,54,psych,51760,54,3558,Chef_wash,A,Chef,wash,washed,Regular,chef_wash_dish_v3.png,future,The Chef will wash a dish,NULL
1771275823,ecad2e108efa1e3217094bdbb53ccb7f,PennController,32,0,experiment,NULL,PennController,33,_Header_,Start,1771275724198,3558,54,psych,51760,54,3558,Chef_wash,A,Chef,wash,washed,Regular,chef_wash_dish_v3.png,future,The Chef will wash a dish,NULL
1771275823,ecad2e108efa1e3217094bdbb53ccb7f,PennController,32,0,experiment,NULL,PennController,33,_Trial_,Start,1771275724198,3558,54,psych,51760,54,3558,Chef_wash,A,Chef,wash,washed,Regular,chef_wash_dish_v3.png,future,The Chef will wash a dish,NULL
1771275823,ecad2e108efa1e3217094bdbb53ccb7f,PennController,32,0,experiment,NULL,Scale,rating,Choice,6,1771275728161,3558,54,psych,51760,54,3558,Chef_wash,A,Chef,wash,washed,Regular,chef_wash_dish_v3.png,future,The Chef will wash a dish,NULL
1771275823,ecad2e108efa1e3217094bdbb53ccb7f,PennController,32,0,experiment,NULL,PennController,33,_Trial_,End,1771275728568,3558,54,psych,51760,54,3558,Chef_wash,A,Chef,wash,washed,Regular,chef_wash_dish_v3.png,future,The Chef will wash a dish,NULL
1771275823,ecad2e108efa1e3217094bdbb53ccb7f,PennController,54,0,experiment,NULL,PennController,55,_Header_,Start,1771275728572,2625,55,psych,51760,55,2625,Wizard_build,A,Wizard,build,built,Irregular,wizard_build_tower_v2.png,future,The Wizard will build a tower,NULL
1771275823,ecad2e108efa1e3217094bdbb53ccb7f,PennController,54,0,experiment,NULL,PennController,55,_Trial_,Start,1771275728572,2625,55,psych,51760,55,2625,Wizard_build,A,Wizard,build,built,Irregular,wizard_build_tower_v2.png,future,The Wizard will build a tower,NULL
1771275823,ecad2e108efa1e3217094bdbb53ccb7f,PennController,54,0,experiment,NULL,PennController,55,_Header_,End,1771275728573,2625,55,psych,51760,55,2625,Wizard_build,A,Wizard,build,built,Irregular,wizard_build_tower_v2.png,future,The Wizard will build a tower,NULL
1771275823,ecad2e108efa1e3217094bdbb53ccb7f,PennController,54,0,experiment,NULL,Scale,rating,Choice,6,1771275731609,2625,55,psych,51760,55,2625,Wizard_build,A,Wizard,build,built,Irregular,wizard_build_tower_v2.png,future,The Wizard will build a tower,NULL
1771275823,ecad2e108efa1e3217094bdbb53ccb7f,PennController,54,0,experiment,NULL,PennController,55,_Trial_,End,1771275732013,2625,55,psych,51760,55,2625,Wizard_build,A,Wizard,build,built,Irregular,wizard_build_tower_v2.png,future,The Wizard will build a tower,NULL
1771275823,ecad2e108efa1e3217094bdbb53ccb7f,PennController,45,0,experiment,NULL,PennController,46,_Header_,End,1771275732015,1355,56,psych,51760,56,1355,Pirate_read,A,Pirate,read,read,Irregular,pirate_read_book_v2.png,past,The Pirate read a book,NULL
1771275823,ecad2e108efa1e3217094bdbb53ccb7f,PennController,45,0,experiment,NULL,PennController,46,_Header_,Start,1771275732015,1355,56,psych,51760,56,1355,Pirate_read,A,Pirate,read,read,Irregular,pirate_read_book_v2.png,past,The Pirate read a book,NULL
1771275823,ecad2e108efa1e3217094bdbb53ccb7f,PennController,45,0,experiment,NULL,PennController,46,_Trial_,Start,1771275732015,1355,56,psych,51760,56,1355,Pirate_read,A,Pirate,read,read,Irregular,pirate_read_book_v2.png,past,The Pirate read a book,NULL
1771275823,ecad2e108efa1e3217094bdbb53ccb7f,PennController,45,0,experiment,NULL,Scale,rating,Choice,7,1771275733779,1355,56,psych,51760,56,1355,Pirate_read,A,Pirate,read,read,Irregular,pirate_read_book_v2.png,past,The Pirate read a book,NULL
1771275823,ecad2e108efa1e3217094bdbb53ccb7f,PennController,45,0,experiment,NULL,PennController,46,_Trial_,End,1771275734187,1355,56,psych,51760,56,1355,Pirate_read,A,Pirate,read,read,Irregular,pirate_read_book_v2.png,past,The Pirate read a book,NULL
1771275823,ecad2e108efa1e3217094bdbb53ccb7f,PennController,73,0,filler,NULL,PennController,74,_Header_,End,1771275734190,2066,57,psych,51760,57,2066,ctrl_wrong_Chef_blow_past,A,Chef,build,built,Irregular,chef_blow_bubbles_v4.png,past,The Chef built a tower,NULL
1771275823,ecad2e108efa1e3217094bdbb53ccb7f,PennController,73,0,filler,NULL,PennController,74,_Header_,Start,1771275734190,2066,57,psych,51760,57,2066,ctrl_wrong_Chef_blow_past,A,Chef,build,built,Irregular,chef_blow_bubbles_v4.png,past,The Chef built a tower,NULL
1771275823,ecad2e108efa1e3217094bdbb53ccb7f,PennController,73,0,filler,NULL,PennController,74,_Trial_,Start,1771275734190,2066,57,psych,51760,57,2066,ctrl_wrong_Chef_blow_past,A,Chef,build,built,Irregular,chef_blow_bubbles_v4.png,past,The Chef built a tower,NULL
1771275823,ecad2e108efa1e3217094bdbb53ccb7f,PennController,73,0,filler,NULL,Scale,rating,Choice,2,1771275736661,2066,57,psych,51760,57,2066,ctrl_wrong_Chef_blow_past,A,Chef,build,built,Irregular,chef_blow_bubbles_v4.png,past,The Chef built a tower,NULL
1771275823,ecad2e108efa1e3217094bdbb53ccb7f,PennController,73,0,filler,NULL,PennController,74,_Trial_,End,1771275737063,2066,57,psych,51760,57,2066,ctrl_wrong_Chef_blow_past,A,Chef,build,built,Irregular,chef_blow_bubbles_v4.png,past,The Chef built a tower,NULL
1771275823,ecad2e108efa1e3217094bdbb53ccb7f,PennController,67,0,experiment,NULL,PennController,68,_Header_,End,1771275737065,1385,58,psych,51760,58,1385,Wizard_shake,A,Wizard,shake,shook,Irregular,wizard_shake_bottle_v3.png,past,The Wizard shook a bottle,NULL
1771275823,ecad2e108efa1e3217094bdbb53ccb7f,PennController,67,0,experiment,NULL,PennController,68,_Header_,Start,1771275737065,1385,58,psych,51760,58,1385,Wizard_shake,A,Wizard,shake,shook,Irregular,wizard_shake_bottle_v3.png,past,The Wizard shook a bottle,NULL
1771275823,ecad2e108efa1e3217094bdbb53ccb7f,PennController,67,0,experiment,NULL,PennController,68,_Trial_,Start,1771275737065,1385,58,psych,51760,58,1385,Wizard_shake,A,Wizard,shake,shook,Irregular,wizard_shake_bottle_v3.png,past,The Wizard shook a bottle,NULL
1771275823,ecad2e108efa1e3217094bdbb53ccb7f,PennController,67,0,experiment,NULL,Scale,rating,Choice,7,1771275738857,1385,58,psych,51760,58,1385,Wizard_shake,A,Wizard,shake,shook,Irregular,wizard_shake_bottle_v3.png,past,The Wizard shook a bottle,NULL
1771275823,ecad2e108efa1e3217094bdbb53ccb7f,PennController,67,0,experiment,NULL,PennController,68,_Trial_,End,1771275739262,1385,58,psych,51760,58,1385,Wizard_shake,A,Wizard,shake,shook,Irregular,wizard_shake_bottle_v3.png,past,The Wizard shook a bottle,NULL
1771275823,ecad2e108efa1e3217094bdbb53ccb7f,PennController,17,0,experiment,NULL,PennController,18,_Header_,End,1771275739264,3265,59,psych,51760,59,3265,Chef_dig,A,Chef,dig,dug,Irregular,chef_dig_hole_v1.png,past,The Chef dug a hole,NULL
1771275823,ecad2e108efa1e3217094bdbb53ccb7f,PennController,17,0,experiment,NULL,PennController,18,_Header_,Start,1771275739264,3265,59,psych,51760,59,3265,Chef_dig,A,Chef,dig,dug,Irregular,chef_dig_hole_v1.png,past,The Chef dug a hole,NULL
1771275823,ecad2e108efa1e3217094bdbb53ccb7f,PennController,17,0,experiment,NULL,PennController,18,_Trial_,Start,1771275739264,3265,59,psych,51760,59,3265,Chef_dig,A,Chef,dig,dug,Irregular,chef_dig_hole_v1.png,past,The Chef dug a hole,NULL
1771275823,ecad2e108efa1e3217094bdbb53ccb7f,PennController,17,0,experiment,NULL,Scale,rating,Choice,7,1771275742938,3265,59,psych,51760,59,3265,Chef_dig,A,Chef,dig,dug,Irregular,chef_dig_hole_v1.png,past,The Chef dug a hole,NULL
1771275823,ecad2e108efa1e3217094bdbb53ccb7f,PennController,17,0,experiment,NULL,PennController,18,_Trial_,End,1771275743343,3265,59,psych,51760,59,3265,Chef_dig,A,Chef,dig,dug,Irregular,chef_dig_hole_v1.png,past,The Chef dug a hole,NULL
1771275823,ecad2e108efa1e3217094bdbb53ccb7f,PennController,19,0,experiment,NULL,PennController,20,_Header_,End,1771275743345,4551,60,psych,51760,60,4551,Chef_drink,A,Chef,drink,drank,Irregular,chef_drink_coffee_v1.png,past,The Chef drank coffee,NULL
1771275823,ecad2e108efa1e3217094bdbb53ccb7f,PennController,19,0,experiment,NULL,PennController,20,_Header_,Start,1771275743345,4551,60,psych,51760,60,4551,Chef_drink,A,Chef,drink,drank,Irregular,chef_drink_coffee_v1.png,past,The Chef drank coffee,NULL
1771275823,ecad2e108efa1e3217094bdbb53ccb7f,PennController,19,0,experiment,NULL,PennController,20,_Trial_,Start,1771275743345,4551,60,psych,51760,60,4551,Chef_drink,A,Chef,drink,drank,Irregular,chef_drink_coffee_v1.png,past,The Chef drank coffee,NULL
1771275823,ecad2e108efa1e3217094bdbb53ccb7f,PennController,19,0,experiment,NULL,Scale,rating,Choice,7,1771275748306,4551,60,psych,51760,60,4551,Chef_drink,A,Chef,drink,drank,Irregular,chef_drink_coffee_v1.png,past,The Chef drank coffee,NULL
1771275823,ecad2e108efa1e3217094bdbb53ccb7f,PennController,19,0,experiment,NULL,PennController,20,_Trial_,End,1771275748711,4551,60,psych,51760,60,4551,Chef_drink,A,Chef,drink,drank,Irregular,chef_drink_coffee_v1.png,past,The Chef drank coffee,NULL
1771275823,ecad2e108efa1e3217094bdbb53ccb7f,PennController,77,0,filler,NULL,PennController,78,_Header_,End,1771275748713,2756,61,psych,51760,61,2756,ctrl_wrong_Pirate_dig_past,A,Pirate,drag,dragged,Practice,pirate_dig_hole_v4.png,past,The Pirate dragged a sack,NULL
1771275823,ecad2e108efa1e3217094bdbb53ccb7f,PennController,77,0,filler,NULL,PennController,78,_Header_,Start,1771275748713,2756,61,psych,51760,61,2756,ctrl_wrong_Pirate_dig_past,A,Pirate,drag,dragged,Practice,pirate_dig_hole_v4.png,past,The Pirate dragged a sack,NULL
1771275823,ecad2e108efa1e3217094bdbb53ccb7f,PennController,77,0,filler,NULL,PennController,78,_Trial_,Start,1771275748713,2756,61,psych,51760,61,2756,ctrl_wrong_Pirate_dig_past,A,Pirate,drag,dragged,Practice,pirate_dig_hole_v4.png,past,The Pirate dragged a sack,NULL
1771275823,ecad2e108efa1e3217094bdbb53ccb7f,PennController,77,0,filler,NULL,Scale,rating,Choice,2,1771275751873,2756,61,psych,51760,61,2756,ctrl_wrong_Pirate_dig_past,A,Pirate,drag,dragged,Practice,pirate_dig_hole_v4.png,past,The Pirate dragged a sack,NULL
1771275823,ecad2e108efa1e3217094bdbb53ccb7f,PennController,77,0,filler,NULL,PennController,78,_Trial_,End,1771275752276,2756,61,psych,51760,61,2756,ctrl_wrong_Pirate_dig_past,A,Pirate,drag,dragged,Practice,pirate_dig_hole_v4.png,past,The Pirate dragged a sack,NULL
1771275823,ecad2e108efa1e3217094bdbb53ccb7f,PennController,68,0,experiment,NULL,PennController,69,_Header_,End,1771275752279,2002,62,psych,51760,62,2002,Wizard_smell,A,Wizard,smell,smelled,Regular,wizard_smell_flower_v2.png,future,The Wizard will smell a flower,NULL
1771275823,ecad2e108efa1e3217094bdbb53ccb7f,PennController,68,0,experiment,NULL,PennController,69,_Header_,Start,1771275752279,2002,62,psych,51760,62,2002,Wizard_smell,A,Wizard,smell,smelled,Regular,wizard_smell_flower_v2.png,future,The Wizard will smell a flower,NULL
1771275823,ecad2e108efa1e3217094bdbb53ccb7f,PennController,68,0,experiment,NULL,PennController,69,_Trial_,Start,1771275752279,2002,62,psych,51760,62,2002,Wizard_smell,A,Wizard,smell,smelled,Regular,wizard_smell_flower_v2.png,future,The Wizard will smell a flower,NULL
1771275823,ecad2e108efa1e3217094bdbb53ccb7f,PennController,68,0,experiment,NULL,Scale,rating,Choice,6,1771275754691,2002,62,psych,51760,62,2002,Wizard_smell,A,Wizard,smell,smelled,Regular,wizard_smell_flower_v2.png,future,The Wizard will smell a flower,NULL
1771275823,ecad2e108efa1e3217094bdbb53ccb7f,PennController,68,0,experiment,NULL,PennController,69,_Trial_,End,1771275755094,2002,62,psych,51760,62,2002,Wizard_smell,A,Wizard,smell,smelled,Regular,wizard_smell_flower_v2.png,future,The Wizard will smell a flower,NULL
1771275823,ecad2e108efa1e3217094bdbb53ccb7f,PennController,37,0,experiment,NULL,PennController,38,_Header_,End,1771275755097,1947,63,psych,51760,63,1947,Pirate_dig,A,Pirate,dig,dug,Irregular,pirate_dig_hole_v4.png,past,The Pirate dug a hole,NULL
1771275823,ecad2e108efa1e3217094bdbb53ccb7f,PennController,37,0,experiment,NULL,PennController,38,_Header_,Start,1771275755097,1947,63,psych,51760,63,1947,Pirate_dig,A,Pirate,dig,dug,Irregular,pirate_dig_hole_v4.png,past,The Pirate dug a hole,NULL
1771275823,ecad2e108efa1e3217094bdbb53ccb7f,PennController,37,0,experiment,NULL,PennController,38,_Trial_,Start,1771275755097,1947,63,psych,51760,63,1947,Pirate_dig,A,Pirate,dig,dug,Irregular,pirate_dig_hole_v4.png,past,The Pirate dug a hole,NULL
1771275823,ecad2e108efa1e3217094bdbb53ccb7f,PennController,37,0,experiment,NULL,Scale,rating,Choice,7,1771275757452,1947,63,psych,51760,63,1947,Pirate_dig,A,Pirate,dig,dug,Irregular,pirate_dig_hole_v4.png,past,The Pirate dug a hole,NULL
1771275823,ecad2e108efa1e3217094bdbb53ccb7f,PennController,37,0,experiment,NULL,PennController,38,_Trial_,End,1771275757861,1947,63,psych,51760,63,1947,Pirate_dig,A,Pirate,dig,dug,Irregular,pirate_dig_hole_v4.png,past,The Pirate dug a hole,NULL
1771275823,ecad2e108efa1e3217094bdbb53ccb7f,PennController,50,0,experiment,NULL,PennController,51,_Header_,End,1771275757863,1759,64,psych,51760,64,1759,Pirate_stir,A,Pirate,stir,stirred,Regular,pirate_stir_pot_v3.png,future,The Pirate will stir a pot,NULL
1771275823,ecad2e108efa1e3217094bdbb53ccb7f,PennController,50,0,experiment,NULL,PennController,51,_Header_,Start,1771275757863,1759,64,psych,51760,64,1759,Pirate_stir,A,Pirate,stir,stirred,Regular,pirate_stir_pot_v3.png,future,The Pirate will stir a pot,NULL
1771275823,ecad2e108efa1e3217094bdbb53ccb7f,PennController,50,0,experiment,NULL,PennController,51,_Trial_,Start,1771275757863,1759,64,psych,51760,64,1759,Pirate_stir,A,Pirate,stir,stirred,Regular,pirate_stir_pot_v3.png,future,The Pirate will stir a pot,NULL
1771275823,ecad2e108efa1e3217094bdbb53ccb7f,PennController,50,0,experiment,NULL,Scale,rating,Choice,6,1771275760029,1759,64,psych,51760,64,1759,Pirate_stir,A,Pirate,stir,stirred,Regular,pirate_stir_pot_v3.png,future,The Pirate will stir a pot,NULL
1771275823,ecad2e108efa1e3217094bdbb53ccb7f,PennController,50,0,experiment,NULL,PennController,51,_Trial_,End,1771275760436,1759,64,psych,51760,64,1759,Pirate_stir,A,Pirate,stir,stirred,Regular,pirate_stir_pot_v3.png,future,The Pirate will stir a pot,NULL
# 17. Comments.
1771275823,ecad2e108efa1e3217094bdbb53ccb7f,PennController,12,0,break,NULL,PennController,11,_Header_,Start,1771275760438,1759,64,psych,51760,NULL
1771275823,ecad2e108efa1e3217094bdbb53ccb7f,PennController,12,0,break,NULL,PennController,11,_Trial_,Start,1771275760438,1759,64,psych,51760,NULL
1771275823,ecad2e108efa1e3217094bdbb53ccb7f,PennController,12,0,break,NULL,PennController,11,_Header_,End,1771275760439,1759,64,psych,51760,NULL
1771275823,ecad2e108efa1e3217094bdbb53ccb7f,PennController,12,0,break,NULL,PennController,11,_Trial_,End,1771275762108,1759,64,psych,51760,NULL
# 17. trialN.
# 18. RT-answer.
# 19. item_id.
# 20. group.
# 21. character.
# 22. verb.
# 23. past_form.
# 24. type.
# 25. picture.
# 26. tense.
# 27. sentence.
# 28. Comments.
1771275823,ecad2e108efa1e3217094bdbb53ccb7f,PennController,80,0,filler,NULL,PennController,81,_Header_,End,1771275762111,1976,65,psych,51760,65,1976,ctrl_wrong_Pirate_eat_future,A,Pirate,paint,painted,Regular,pirate_eat_apple_v5.png,future,The Pirate will paint a canvas,NULL
1771275823,ecad2e108efa1e3217094bdbb53ccb7f,PennController,80,0,filler,NULL,PennController,81,_Header_,Start,1771275762111,1976,65,psych,51760,65,1976,ctrl_wrong_Pirate_eat_future,A,Pirate,paint,painted,Regular,pirate_eat_apple_v5.png,future,The Pirate will paint a canvas,NULL
1771275823,ecad2e108efa1e3217094bdbb53ccb7f,PennController,80,0,filler,NULL,PennController,81,_Trial_,Start,1771275762111,1976,65,psych,51760,65,1976,ctrl_wrong_Pirate_eat_future,A,Pirate,paint,painted,Regular,pirate_eat_apple_v5.png,future,The Pirate will paint a canvas,NULL
1771275823,ecad2e108efa1e3217094bdbb53ccb7f,PennController,80,0,filler,NULL,Scale,rating,Choice,2,1771275764494,1976,65,psych,51760,65,1976,ctrl_wrong_Pirate_eat_future,A,Pirate,paint,painted,Regular,pirate_eat_apple_v5.png,future,The Pirate will paint a canvas,NULL
1771275823,ecad2e108efa1e3217094bdbb53ccb7f,PennController,80,0,filler,NULL,PennController,81,_Trial_,End,1771275764911,1976,65,psych,51760,65,1976,ctrl_wrong_Pirate_eat_future,A,Pirate,paint,painted,Regular,pirate_eat_apple_v5.png,future,The Pirate will paint a canvas,NULL
1771275823,ecad2e108efa1e3217094bdbb53ccb7f,PennController,72,0,experiment,NULL,PennController,73,_Header_,End,1771275764913,2163,66,psych,51760,66,2163,Wizard_wash,A,Wizard,wash,washed,Regular,wizard_wash_dish_v5.png,future,The Wizard will wash a dish,NULL
1771275823,ecad2e108efa1e3217094bdbb53ccb7f,PennController,72,0,experiment,NULL,PennController,73,_Header_,Start,1771275764913,2163,66,psych,51760,66,2163,Wizard_wash,A,Wizard,wash,washed,Regular,wizard_wash_dish_v5.png,future,The Wizard will wash a dish,NULL
1771275823,ecad2e108efa1e3217094bdbb53ccb7f,PennController,72,0,experiment,NULL,PennController,73,_Trial_,Start,1771275764913,2163,66,psych,51760,66,2163,Wizard_wash,A,Wizard,wash,washed,Regular,wizard_wash_dish_v5.png,future,The Wizard will wash a dish,NULL
1771275823,ecad2e108efa1e3217094bdbb53ccb7f,PennController,72,0,experiment,NULL,Scale,rating,Choice,6,1771275767483,2163,66,psych,51760,66,2163,Wizard_wash,A,Wizard,wash,washed,Regular,wizard_wash_dish_v5.png,future,The Wizard will wash a dish,NULL
1771275823,ecad2e108efa1e3217094bdbb53ccb7f,PennController,72,0,experiment,NULL,PennController,73,_Trial_,End,1771275767886,2163,66,psych,51760,66,2163,Wizard_wash,A,Wizard,wash,washed,Regular,wizard_wash_dish_v5.png,future,The Wizard will wash a dish,NULL
1771275823,ecad2e108efa1e3217094bdbb53ccb7f,PennController,55,0,experiment,NULL,PennController,56,_Header_,End,1771275767889,1595,67,psych,51760,67,1595,Wizard_carry,A,Wizard,carry,carried,Regular,wizard_carry_box_v1.png,past,The Wizard carried a box,NULL
1771275823,ecad2e108efa1e3217094bdbb53ccb7f,PennController,55,0,experiment,NULL,PennController,56,_Header_,Start,1771275767889,1595,67,psych,51760,67,1595,Wizard_carry,A,Wizard,carry,carried,Regular,wizard_carry_box_v1.png,past,The Wizard carried a box,NULL
1771275823,ecad2e108efa1e3217094bdbb53ccb7f,PennController,55,0,experiment,NULL,PennController,56,_Trial_,Start,1771275767889,1595,67,psych,51760,67,1595,Wizard_carry,A,Wizard,carry,carried,Regular,wizard_carry_box_v1.png,past,The Wizard carried a box,NULL
1771275823,ecad2e108efa1e3217094bdbb53ccb7f,PennController,55,0,experiment,NULL,Scale,rating,Choice,7,1771275769900,1595,67,psych,51760,67,1595,Wizard_carry,A,Wizard,carry,carried,Regular,wizard_carry_box_v1.png,past,The Wizard carried a box,NULL
1771275823,ecad2e108efa1e3217094bdbb53ccb7f,PennController,55,0,experiment,NULL,PennController,56,_Trial_,End,1771275770305,1595,67,psych,51760,67,1595,Wizard_carry,A,Wizard,carry,carried,Regular,wizard_carry_box_v1.png,past,The Wizard carried a box,NULL
1771275823,ecad2e108efa1e3217094bdbb53ccb7f,PennController,63,0,experiment,NULL,PennController,64,_Header_,Start,1771275770308,2494,68,psych,51760,68,2494,Wizard_play,A,Wizard,play,played,Regular,wizard_play_guitar_v1.png,past,The Wizard played the guitar,NULL
1771275823,ecad2e108efa1e3217094bdbb53ccb7f,PennController,63,0,experiment,NULL,PennController,64,_Trial_,Start,1771275770308,2494,68,psych,51760,68,2494,Wizard_play,A,Wizard,play,played,Regular,wizard_play_guitar_v1.png,past,The Wizard played the guitar,NULL
1771275823,ecad2e108efa1e3217094bdbb53ccb7f,PennController,63,0,experiment,NULL,PennController,64,_Header_,End,1771275770309,2494,68,psych,51760,68,2494,Wizard_play,A,Wizard,play,played,Regular,wizard_play_guitar_v1.png,past,The Wizard played the guitar,NULL
1771275823,ecad2e108efa1e3217094bdbb53ccb7f,PennController,63,0,experiment,NULL,Scale,rating,Choice,7,1771275773210,2494,68,psych,51760,68,2494,Wizard_play,A,Wizard,play,played,Regular,wizard_play_guitar_v1.png,past,The Wizard played the guitar,NULL
1771275823,ecad2e108efa1e3217094bdbb53ccb7f,PennController,63,0,experiment,NULL,PennController,64,_Trial_,End,1771275773619,2494,68,psych,51760,68,2494,Wizard_play,A,Wizard,play,played,Regular,wizard_play_guitar_v1.png,past,The Wizard played the guitar,NULL
1771275823,ecad2e108efa1e3217094bdbb53ccb7f,PennController,42,0,experiment,NULL,PennController,43,_Header_,Start,1771275773622,2353,69,psych,51760,69,2353,Pirate_peel,A,Pirate,peel,peeled,Regular,pirate_peel_banana_v5.png,future,The Pirate will peel a banana,NULL
1771275823,ecad2e108efa1e3217094bdbb53ccb7f,PennController,42,0,experiment,NULL,PennController,43,_Trial_,Start,1771275773622,2353,69,psych,51760,69,2353,Pirate_peel,A,Pirate,peel,peeled,Regular,pirate_peel_banana_v5.png,future,The Pirate will peel a banana,NULL
1771275823,ecad2e108efa1e3217094bdbb53ccb7f,PennController,42,0,experiment,NULL,PennController,43,_Header_,End,1771275773623,2353,69,psych,51760,69,2353,Pirate_peel,A,Pirate,peel,peeled,Regular,pirate_peel_banana_v5.png,future,The Pirate will peel a banana,NULL
1771275823,ecad2e108efa1e3217094bdbb53ccb7f,PennController,42,0,experiment,NULL,Scale,rating,Choice,6,1771275776382,2353,69,psych,51760,69,2353,Pirate_peel,A,Pirate,peel,peeled,Regular,pirate_peel_banana_v5.png,future,The Pirate will peel a banana,NULL
1771275823,ecad2e108efa1e3217094bdbb53ccb7f,PennController,42,0,experiment,NULL,PennController,43,_Trial_,End,1771275776786,2353,69,psych,51760,69,2353,Pirate_peel,A,Pirate,peel,peeled,Regular,pirate_peel_banana_v5.png,future,The Pirate will peel a banana,NULL
1771275823,ecad2e108efa1e3217094bdbb53ccb7f,PennController,86,0,filler,NULL,PennController,87,_Header_,End,1771275776788,4650,70,psych,51760,70,4650,ctrl_wrong_Pirate_ride_future,A,Pirate,shake,shook,Irregular,pirate_ride_bicycle_v3.png,future,The Pirate will shake a bottle,NULL
1771275823,ecad2e108efa1e3217094bdbb53ccb7f,PennController,86,0,filler,NULL,PennController,87,_Header_,Start,1771275776788,4650,70,psych,51760,70,4650,ctrl_wrong_Pirate_ride_future,A,Pirate,shake,shook,Irregular,pirate_ride_bicycle_v3.png,future,The Pirate will shake a bottle,NULL
1771275823,ecad2e108efa1e3217094bdbb53ccb7f,PennController,86,0,filler,NULL,PennController,87,_Trial_,Start,1771275776788,4650,70,psych,51760,70,4650,ctrl_wrong_Pirate_ride_future,A,Pirate,shake,shook,Irregular,pirate_ride_bicycle_v3.png,future,The Pirate will shake a bottle,NULL
1771275823,ecad2e108efa1e3217094bdbb53ccb7f,PennController,86,0,filler,NULL,Scale,rating,Choice,2,1771275781847,4650,70,psych,51760,70,4650,ctrl_wrong_Pirate_ride_future,A,Pirate,shake,shook,Irregular,pirate_ride_bicycle_v3.png,future,The Pirate will shake a bottle,NULL
1771275823,ecad2e108efa1e3217094bdbb53ccb7f,PennController,86,0,filler,NULL,PennController,87,_Trial_,End,1771275782254,4650,70,psych,51760,70,4650,ctrl_wrong_Pirate_ride_future,A,Pirate,shake,shook,Irregular,pirate_ride_bicycle_v3.png,future,The Pirate will shake a bottle,NULL
1771275823,ecad2e108efa1e3217094bdbb53ccb7f,PennController,43,0,experiment,NULL,PennController,44,_Header_,End,1771275782257,4132,71,psych,51760,71,4132,Pirate_play,A,Pirate,play,played,Regular,pirate_play_guitar_v5.png,past,The Pirate played the guitar,NULL
1771275823,ecad2e108efa1e3217094bdbb53ccb7f,PennController,43,0,experiment,NULL,PennController,44,_Header_,Start,1771275782257,4132,71,psych,51760,71,4132,Pirate_play,A,Pirate,play,played,Regular,pirate_play_guitar_v5.png,past,The Pirate played the guitar,NULL
1771275823,ecad2e108efa1e3217094bdbb53ccb7f,PennController,43,0,experiment,NULL,PennController,44,_Trial_,Start,1771275782257,4132,71,psych,51760,71,4132,Pirate_play,A,Pirate,play,played,Regular,pirate_play_guitar_v5.png,past,The Pirate played the guitar,NULL
1771275823,ecad2e108efa1e3217094bdbb53ccb7f,PennController,43,0,experiment,NULL,Scale,rating,Choice,7,1771275786794,4132,71,psych,51760,71,4132,Pirate_play,A,Pirate,play,played,Regular,pirate_play_guitar_v5.png,past,The Pirate played the guitar,NULL
1771275823,ecad2e108efa1e3217094bdbb53ccb7f,PennController,43,0,experiment,NULL,PennController,44,_Trial_,End,1771275787201,4132,71,psych,51760,71,4132,Pirate_play,A,Pirate,play,played,Regular,pirate_play_guitar_v5.png,past,The Pirate played the guitar,NULL
1771275823,ecad2e108efa1e3217094bdbb53ccb7f,PennController,35,0,experiment,NULL,PennController,36,_Header_,Start,1771275787204,1644,72,psych,51760,72,1644,Pirate_carry,A,Pirate,carry,carried,Regular,pirate_carry_box_v4.png,past,The Pirate carried a box,NULL
1771275823,ecad2e108efa1e3217094bdbb53ccb7f,PennController,35,0,experiment,NULL,PennController,36,_Trial_,Start,1771275787204,1644,72,psych,51760,72,1644,Pirate_carry,A,Pirate,carry,carried,Regular,pirate_carry_box_v4.png,past,The Pirate carried a box,NULL
1771275823,ecad2e108efa1e3217094bdbb53ccb7f,PennController,35,0,experiment,NULL,PennController,36,_Header_,End,1771275787205,1644,72,psych,51760,72,1644,Pirate_carry,A,Pirate,carry,carried,Regular,pirate_carry_box_v4.png,past,The Pirate carried a box,NULL
1771275823,ecad2e108efa1e3217094bdbb53ccb7f,PennController,35,0,experiment,NULL,Scale,rating,Choice,7,1771275789254,1644,72,psych,51760,72,1644,Pirate_carry,A,Pirate,carry,carried,Regular,pirate_carry_box_v4.png,past,The Pirate carried a box,NULL
1771275823,ecad2e108efa1e3217094bdbb53ccb7f,PennController,35,0,experiment,NULL,PennController,36,_Trial_,End,1771275789666,1644,72,psych,51760,72,1644,Pirate_carry,A,Pirate,carry,carried,Regular,pirate_carry_box_v4.png,past,The Pirate carried a box,NULL
1771275823,ecad2e108efa1e3217094bdbb53ccb7f,PennController,64,0,experiment,NULL,PennController,65,_Header_,End,1771275789669,2132,73,psych,51760,73,2132,Wizard_push,A,Wizard,push,pushed,Regular,wizard_push_cart_v1.png,future,The Wizard will push a cart,NULL
1771275823,ecad2e108efa1e3217094bdbb53ccb7f,PennController,64,0,experiment,NULL,PennController,65,_Header_,Start,1771275789669,2132,73,psych,51760,73,2132,Wizard_push,A,Wizard,push,pushed,Regular,wizard_push_cart_v1.png,future,The Wizard will push a cart,NULL
1771275823,ecad2e108efa1e3217094bdbb53ccb7f,PennController,64,0,experiment,NULL,PennController,65,_Trial_,Start,1771275789669,2132,73,psych,51760,73,2132,Wizard_push,A,Wizard,push,pushed,Regular,wizard_push_cart_v1.png,future,The Wizard will push a cart,NULL
1771275823,ecad2e108efa1e3217094bdbb53ccb7f,PennController,64,0,experiment,NULL,Scale,rating,Choice,7,1771275792207,2132,73,psych,51760,73,2132,Wizard_push,A,Wizard,push,pushed,Regular,wizard_push_cart_v1.png,future,The Wizard will push a cart,NULL
1771275823,ecad2e108efa1e3217094bdbb53ccb7f,PennController,64,0,experiment,NULL,PennController,65,_Trial_,End,1771275792609,2132,73,psych,51760,73,2132,Wizard_push,A,Wizard,push,pushed,Regular,wizard_push_cart_v1.png,future,The Wizard will push a cart,NULL
