#
# Results on Tue, 10 Feb 2026 04:21:27 GMT
# USER AGENT: Mozilla/5.0 (Macintosh; Intel Mac OS X 10_15_7) AppleWebKit/537.36 (KHTML, like Gecko) Chrome/144.0.0.0 Safari/537.36
# Design number was non-random = 3
#
# Columns below this comment are as follows:
# 1. Results reception time.
# 2. MD5 hash of participant's IP address.
# 3. Controller name.
# 4. Order number of item.
# 5. Inner element number.
# 6. Label.
# 7. Latin Square Group.
# 8. PennElementType.
# 9. PennElementName.
# 10. Parameter.
# 11. Value.
# 12. EventTime.
# 13. RT_answer_header.
# 14. trialN_header.
# 15. source.
# 16. SONA_ID_URL.
# 17. Comments.
1770697287,8763722d2f3eec65377c986d643c49d5,PennController,1,0,intro,NULL,PennController,0,_Trial_,Start,1770696654354,0,0,utku,42,NULL
1770697287,8763722d2f3eec65377c986d643c49d5,PennController,1,0,intro,NULL,PennController,0,_Header_,Start,1770696654354,0,0,utku,42,NULL
1770697287,8763722d2f3eec65377c986d643c49d5,PennController,1,0,intro,NULL,PennController,0,_Header_,End,1770696654354,0,0,utku,42,NULL
1770697287,8763722d2f3eec65377c986d643c49d5,PennController,1,0,intro,NULL,PennController,0,_Trial_,End,1770696664234,0,0,utku,42,NULL
1770697287,8763722d2f3eec65377c986d643c49d5,PennController,2,0,consent,NULL,PennController,1,_Trial_,Start,1770696664236,0,0,utku,42,NULL
1770697287,8763722d2f3eec65377c986d643c49d5,PennController,2,0,consent,NULL,PennController,1,_Header_,Start,1770696664236,0,0,utku,42,NULL
1770697287,8763722d2f3eec65377c986d643c49d5,PennController,2,0,consent,NULL,PennController,1,_Header_,End,1770696664237,0,0,utku,42,NULL
1770697287,8763722d2f3eec65377c986d643c49d5,PennController,2,0,consent,NULL,PennController,1,_Trial_,End,1770696669874,0,0,utku,42,NULL
1770697287,8763722d2f3eec65377c986d643c49d5,PennController,3,0,demo,NULL,PennController,2,_Trial_,Start,1770696669875,0,0,utku,42,NULL
1770697287,8763722d2f3eec65377c986d643c49d5,PennController,3,0,demo,NULL,PennController,2,_Header_,Start,1770696669875,0,0,utku,42,NULL
1770697287,8763722d2f3eec65377c986d643c49d5,PennController,3,0,demo,NULL,PennController,2,_Header_,End,1770696669875,0,0,utku,42,NULL
1770697287,8763722d2f3eec65377c986d643c49d5,PennController,3,0,demo,NULL,TextInput,age,First,,1770696672835,0,0,utku,42,2
1770697287,8763722d2f3eec65377c986d643c49d5,PennController,3,0,demo,NULL,TextInput,gender,First,,1770696675623,0,0,utku,42,CapsLock
1770697287,8763722d2f3eec65377c986d643c49d5,PennController,3,0,demo,NULL,TextInput,location,First,,1770696679055,0,0,utku,42,m
1770697287,8763722d2f3eec65377c986d643c49d5,PennController,3,0,demo,NULL,TextInput,native_language,First,,1770696681382,0,0,utku,42,e
1770697287,8763722d2f3eec65377c986d643c49d5,PennController,3,0,demo,NULL,TextInput,age,Final,29,1770696688367,0,0,utku,42,NULL
1770697287,8763722d2f3eec65377c986d643c49d5,PennController,3,0,demo,NULL,TextInput,gender,Final,F,1770696688367,0,0,utku,42,NULL
1770697287,8763722d2f3eec65377c986d643c49d5,PennController,3,0,demo,NULL,TextInput,location,Final,maryland,1770696688367,0,0,utku,42,NULL
1770697287,8763722d2f3eec65377c986d643c49d5,PennController,3,0,demo,NULL,TextInput,native_language,Final,english,1770696688367,0,0,utku,42,NULL
1770697287,8763722d2f3eec65377c986d643c49d5,PennController,3,0,demo,NULL,PennController,2,_Trial_,End,1770696688367,0,0,utku,42,NULL
1770697287,8763722d2f3eec65377c986d643c49d5,PennController,4,0,instruction,NULL,PennController,3,_Trial_,Start,1770696688369,0,0,utku,42,NULL
1770697287,8763722d2f3eec65377c986d643c49d5,PennController,4,0,instruction,NULL,PennController,3,_Header_,Start,1770696688369,0,0,utku,42,NULL
1770697287,8763722d2f3eec65377c986d643c49d5,PennController,4,0,instruction,NULL,PennController,3,_Header_,End,1770696688370,0,0,utku,42,NULL
1770697287,8763722d2f3eec65377c986d643c49d5,PennController,4,0,instruction,NULL,PennController,3,_Trial_,End,1770696699067,0,0,utku,42,NULL
1770697287,8763722d2f3eec65377c986d643c49d5,PennController,5,0,instruction2,NULL,PennController,4,_Trial_,Start,1770696699068,0,0,utku,42,NULL
1770697287,8763722d2f3eec65377c986d643c49d5,PennController,5,0,instruction2,NULL,PennController,4,_Header_,Start,1770696699068,0,0,utku,42,NULL
1770697287,8763722d2f3eec65377c986d643c49d5,PennController,5,0,instruction2,NULL,PennController,4,_Header_,End,1770696699069,0,0,utku,42,NULL
1770697287,8763722d2f3eec65377c986d643c49d5,PennController,5,0,instruction2,NULL,PennController,4,_Trial_,End,1770696709237,0,0,utku,42,NULL
1770697287,8763722d2f3eec65377c986d643c49d5,PennController,6,0,practice_intro,NULL,PennController,5,_Trial_,Start,1770696709238,0,0,utku,42,NULL
1770697287,8763722d2f3eec65377c986d643c49d5,PennController,6,0,practice_intro,NULL,PennController,5,_Header_,Start,1770696709238,0,0,utku,42,NULL
1770697287,8763722d2f3eec65377c986d643c49d5,PennController,6,0,practice_intro,NULL,PennController,5,_Header_,End,1770696709238,0,0,utku,42,NULL
1770697287,8763722d2f3eec65377c986d643c49d5,PennController,6,0,practice_intro,NULL,PennController,5,_Trial_,End,1770696710662,0,0,utku,42,NULL
# 17. trialN.
# 18. RT-answer.
# 19. Comments.
1770697287,8763722d2f3eec65377c986d643c49d5,PennController,7,0,practice_1,NULL,PennController,6,_Trial_,Start,1770696710663,3014,1,utku,42,1,3014,NULL
1770697287,8763722d2f3eec65377c986d643c49d5,PennController,7,0,practice_1,NULL,PennController,6,_Header_,Start,1770696710663,3014,1,utku,42,1,3014,NULL
1770697287,8763722d2f3eec65377c986d643c49d5,PennController,7,0,practice_1,NULL,PennController,6,_Header_,End,1770696710663,3014,1,utku,42,1,3014,NULL
1770697287,8763722d2f3eec65377c986d643c49d5,PennController,7,0,practice_1,NULL,Scale,rating,Choice,7,1770696714081,3014,1,utku,42,1,3014,NULL
1770697287,8763722d2f3eec65377c986d643c49d5,PennController,7,0,practice_1,NULL,PennController,6,_Trial_,End,1770696717518,3014,1,utku,42,1,3014,NULL
1770697287,8763722d2f3eec65377c986d643c49d5,PennController,8,0,practice_2,NULL,PennController,7,_Trial_,Start,1770696717519,2920,2,utku,42,2,2920,NULL
1770697287,8763722d2f3eec65377c986d643c49d5,PennController,8,0,practice_2,NULL,PennController,7,_Header_,Start,1770696717519,2920,2,utku,42,2,2920,NULL
1770697287,8763722d2f3eec65377c986d643c49d5,PennController,8,0,practice_2,NULL,PennController,7,_Header_,End,1770696717519,2920,2,utku,42,2,2920,NULL
1770697287,8763722d2f3eec65377c986d643c49d5,PennController,8,0,practice_2,NULL,Scale,rating,Choice,1,1770696720842,2920,2,utku,42,2,2920,NULL
1770697287,8763722d2f3eec65377c986d643c49d5,PennController,8,0,practice_2,NULL,PennController,7,_Trial_,End,1770696724476,2920,2,utku,42,2,2920,NULL
1770697287,8763722d2f3eec65377c986d643c49d5,PennController,9,0,practice_3,NULL,PennController,8,_Trial_,Start,1770696724478,5174,3,utku,42,3,5174,NULL
1770697287,8763722d2f3eec65377c986d643c49d5,PennController,9,0,practice_3,NULL,PennController,8,_Header_,Start,1770696724478,5174,3,utku,42,3,5174,NULL
1770697287,8763722d2f3eec65377c986d643c49d5,PennController,9,0,practice_3,NULL,PennController,8,_Header_,End,1770696724478,5174,3,utku,42,3,5174,NULL
1770697287,8763722d2f3eec65377c986d643c49d5,PennController,9,0,practice_3,NULL,Scale,rating,Choice,6,1770696730055,5174,3,utku,42,3,5174,NULL
1770697287,8763722d2f3eec65377c986d643c49d5,PennController,9,0,practice_3,NULL,PennController,8,_Trial_,End,1770696735571,5174,3,utku,42,3,5174,NULL
1770697287,8763722d2f3eec65377c986d643c49d5,PennController,10,0,practice_4,NULL,PennController,9,_Trial_,Start,1770696735572,3712,4,utku,42,4,3712,NULL
1770697287,8763722d2f3eec65377c986d643c49d5,PennController,10,0,practice_4,NULL,PennController,9,_Header_,Start,1770696735572,3712,4,utku,42,4,3712,NULL
1770697287,8763722d2f3eec65377c986d643c49d5,PennController,10,0,practice_4,NULL,PennController,9,_Header_,End,1770696735572,3712,4,utku,42,4,3712,NULL
1770697287,8763722d2f3eec65377c986d643c49d5,PennController,10,0,practice_4,NULL,Scale,rating,Choice,6,1770696739689,3712,4,utku,42,4,3712,NULL
1770697287,8763722d2f3eec65377c986d643c49d5,PennController,10,0,practice_4,NULL,PennController,9,_Trial_,End,1770696741849,3712,4,utku,42,4,3712,NULL
# 17. Comments.
1770697287,8763722d2f3eec65377c986d643c49d5,PennController,11,0,exp_start,NULL,PennController,10,_Trial_,Start,1770696741850,3712,4,utku,42,NULL
1770697287,8763722d2f3eec65377c986d643c49d5,PennController,11,0,exp_start,NULL,PennController,10,_Header_,Start,1770696741850,3712,4,utku,42,NULL
1770697287,8763722d2f3eec65377c986d643c49d5,PennController,11,0,exp_start,NULL,PennController,10,_Header_,End,1770696741850,3712,4,utku,42,NULL
1770697287,8763722d2f3eec65377c986d643c49d5,PennController,11,0,exp_start,NULL,PennController,10,_Trial_,End,1770696743571,3712,4,utku,42,NULL
# 17. trialN.
# 18. RT-answer.
# 19. item_id.
# 20. group.
# 21. character.
# 22. verb.
# 23. past_form.
# 24. type.
# 25. picture.
# 26. tense.
# 27. sentence.
# 28. Comments.
1770697287,8763722d2f3eec65377c986d643c49d5,PennController,95,0,filler,NULL,PennController,96,_Trial_,Start,1770696743572,2639,5,utku,42,5,2639,ctrl_hadalready_Wizard_push,filler,Wizard,push,pushed,Regular,wizard_push_cart.png,had_already,The Wizard had already pushed a cart,NULL
1770697287,8763722d2f3eec65377c986d643c49d5,PennController,95,0,filler,NULL,PennController,96,_Header_,Start,1770696743572,2639,5,utku,42,5,2639,ctrl_hadalready_Wizard_push,filler,Wizard,push,pushed,Regular,wizard_push_cart.png,had_already,The Wizard had already pushed a cart,NULL
1770697287,8763722d2f3eec65377c986d643c49d5,PennController,95,0,filler,NULL,PennController,96,_Header_,End,1770696743572,2639,5,utku,42,5,2639,ctrl_hadalready_Wizard_push,filler,Wizard,push,pushed,Regular,wizard_push_cart.png,had_already,The Wizard had already pushed a cart,NULL
1770697287,8763722d2f3eec65377c986d643c49d5,PennController,95,0,filler,NULL,Scale,rating,Choice,4,1770696746612,2639,5,utku,42,5,2639,ctrl_hadalready_Wizard_push,filler,Wizard,push,pushed,Regular,wizard_push_cart.png,had_already,The Wizard had already pushed a cart,NULL
1770697287,8763722d2f3eec65377c986d643c49d5,PennController,95,0,filler,NULL,PennController,96,_Trial_,End,1770696747015,2639,5,utku,42,5,2639,ctrl_hadalready_Wizard_push,filler,Wizard,push,pushed,Regular,wizard_push_cart.png,had_already,The Wizard had already pushed a cart,NULL
1770697287,8763722d2f3eec65377c986d643c49d5,PennController,22,0,experiment,NULL,PennController,23,_Trial_,Start,1770696747017,3465,6,utku,42,6,3465,Wizard_light,B,Wizard,light,lit,Irregular,wizard_light_candle.png,past,The Wizard lit a candle,NULL
1770697287,8763722d2f3eec65377c986d643c49d5,PennController,22,0,experiment,NULL,PennController,23,_Header_,Start,1770696747017,3465,6,utku,42,6,3465,Wizard_light,B,Wizard,light,lit,Irregular,wizard_light_candle.png,past,The Wizard lit a candle,NULL
1770697287,8763722d2f3eec65377c986d643c49d5,PennController,22,0,experiment,NULL,PennController,23,_Header_,End,1770696747017,3465,6,utku,42,6,3465,Wizard_light,B,Wizard,light,lit,Irregular,wizard_light_candle.png,past,The Wizard lit a candle,NULL
1770697287,8763722d2f3eec65377c986d643c49d5,PennController,22,0,experiment,NULL,Scale,rating,Choice,7,1770696750886,3465,6,utku,42,6,3465,Wizard_light,B,Wizard,light,lit,Irregular,wizard_light_candle.png,past,The Wizard lit a candle,NULL
1770697287,8763722d2f3eec65377c986d643c49d5,PennController,22,0,experiment,NULL,PennController,23,_Trial_,End,1770696751289,3465,6,utku,42,6,3465,Wizard_light,B,Wizard,light,lit,Irregular,wizard_light_candle.png,past,The Wizard lit a candle,NULL
1770697287,8763722d2f3eec65377c986d643c49d5,PennController,21,0,experiment,NULL,PennController,22,_Trial_,Start,1770696751291,2789,7,utku,42,7,2789,Wizard_kick,B,Wizard,kick,kicked,Regular,wizard_kick_ball.png,future,The Wizard will kick a ball,NULL
1770697287,8763722d2f3eec65377c986d643c49d5,PennController,21,0,experiment,NULL,PennController,22,_Header_,Start,1770696751291,2789,7,utku,42,7,2789,Wizard_kick,B,Wizard,kick,kicked,Regular,wizard_kick_ball.png,future,The Wizard will kick a ball,NULL
1770697287,8763722d2f3eec65377c986d643c49d5,PennController,21,0,experiment,NULL,PennController,22,_Header_,End,1770696751291,2789,7,utku,42,7,2789,Wizard_kick,B,Wizard,kick,kicked,Regular,wizard_kick_ball.png,future,The Wizard will kick a ball,NULL
1770697287,8763722d2f3eec65377c986d643c49d5,PennController,21,0,experiment,NULL,Scale,rating,Choice,4,1770696754482,2789,7,utku,42,7,2789,Wizard_kick,B,Wizard,kick,kicked,Regular,wizard_kick_ball.png,future,The Wizard will kick a ball,NULL
1770697287,8763722d2f3eec65377c986d643c49d5,PennController,21,0,experiment,NULL,PennController,22,_Trial_,End,1770696754885,2789,7,utku,42,7,2789,Wizard_kick,B,Wizard,kick,kicked,Regular,wizard_kick_ball.png,future,The Wizard will kick a ball,NULL
1770697287,8763722d2f3eec65377c986d643c49d5,PennController,81,0,filler,NULL,PennController,82,_Trial_,Start,1770696754886,4177,8,utku,42,8,4177,ctrl_prog_Chef_paint,filler,Chef,paint,painted,Regular,chef_paint_canvas.png,progressive,The Chef is painting a canvas,NULL
1770697287,8763722d2f3eec65377c986d643c49d5,PennController,81,0,filler,NULL,PennController,82,_Header_,Start,1770696754886,4177,8,utku,42,8,4177,ctrl_prog_Chef_paint,filler,Chef,paint,painted,Regular,chef_paint_canvas.png,progressive,The Chef is painting a canvas,NULL
1770697287,8763722d2f3eec65377c986d643c49d5,PennController,81,0,filler,NULL,PennController,82,_Header_,End,1770696754886,4177,8,utku,42,8,4177,ctrl_prog_Chef_paint,filler,Chef,paint,painted,Regular,chef_paint_canvas.png,progressive,The Chef is painting a canvas,NULL
1770697287,8763722d2f3eec65377c986d643c49d5,PennController,81,0,filler,NULL,Scale,rating,Choice,7,1770696759468,4177,8,utku,42,8,4177,ctrl_prog_Chef_paint,filler,Chef,paint,painted,Regular,chef_paint_canvas.png,progressive,The Chef is painting a canvas,NULL
1770697287,8763722d2f3eec65377c986d643c49d5,PennController,81,0,filler,NULL,PennController,82,_Trial_,End,1770696759872,4177,8,utku,42,8,4177,ctrl_prog_Chef_paint,filler,Chef,paint,painted,Regular,chef_paint_canvas.png,progressive,The Chef is painting a canvas,NULL
1770697287,8763722d2f3eec65377c986d643c49d5,PennController,35,0,experiment,NULL,PennController,36,_Trial_,Start,1770696759873,3694,9,utku,42,9,3694,Pirate_climb,B,Pirate,climb,climbed,Regular,pirate_climb_ladder.png,future,The Pirate will climb a ladder,NULL
1770697287,8763722d2f3eec65377c986d643c49d5,PennController,35,0,experiment,NULL,PennController,36,_Header_,Start,1770696759873,3694,9,utku,42,9,3694,Pirate_climb,B,Pirate,climb,climbed,Regular,pirate_climb_ladder.png,future,The Pirate will climb a ladder,NULL
1770697287,8763722d2f3eec65377c986d643c49d5,PennController,35,0,experiment,NULL,PennController,36,_Header_,End,1770696759874,3694,9,utku,42,9,3694,Pirate_climb,B,Pirate,climb,climbed,Regular,pirate_climb_ladder.png,future,The Pirate will climb a ladder,NULL
1770697287,8763722d2f3eec65377c986d643c49d5,PennController,35,0,experiment,NULL,Scale,rating,Choice,4,1770696763971,3694,9,utku,42,9,3694,Pirate_climb,B,Pirate,climb,climbed,Regular,pirate_climb_ladder.png,future,The Pirate will climb a ladder,NULL
1770697287,8763722d2f3eec65377c986d643c49d5,PennController,35,0,experiment,NULL,PennController,36,_Trial_,End,1770696764375,3694,9,utku,42,9,3694,Pirate_climb,B,Pirate,climb,climbed,Regular,pirate_climb_ladder.png,future,The Pirate will climb a ladder,NULL
1770697287,8763722d2f3eec65377c986d643c49d5,PennController,36,0,experiment,NULL,PennController,37,_Trial_,Start,1770696764376,3563,10,utku,42,10,3563,Pirate_cut,B,Pirate,cut,cut,Irregular,pirate_cut_bread.png,past,The Pirate cut bread,NULL
1770697287,8763722d2f3eec65377c986d643c49d5,PennController,36,0,experiment,NULL,PennController,37,_Header_,Start,1770696764376,3563,10,utku,42,10,3563,Pirate_cut,B,Pirate,cut,cut,Irregular,pirate_cut_bread.png,past,The Pirate cut bread,NULL
1770697287,8763722d2f3eec65377c986d643c49d5,PennController,36,0,experiment,NULL,PennController,37,_Header_,End,1770696764376,3563,10,utku,42,10,3563,Pirate_cut,B,Pirate,cut,cut,Irregular,pirate_cut_bread.png,past,The Pirate cut bread,NULL
1770697287,8763722d2f3eec65377c986d643c49d5,PennController,36,0,experiment,NULL,Scale,rating,Choice,7,1770696768340,3563,10,utku,42,10,3563,Pirate_cut,B,Pirate,cut,cut,Irregular,pirate_cut_bread.png,past,The Pirate cut bread,NULL
1770697287,8763722d2f3eec65377c986d643c49d5,PennController,36,0,experiment,NULL,PennController,37,_Trial_,End,1770696768743,3563,10,utku,42,10,3563,Pirate_cut,B,Pirate,cut,cut,Irregular,pirate_cut_bread.png,past,The Pirate cut bread,NULL
1770697287,8763722d2f3eec65377c986d643c49d5,PennController,85,0,filler,NULL,PennController,86,_Trial_,Start,1770696768744,5227,11,utku,42,11,5227,ctrl_prog_Chef_hammer,filler,Chef,hammer,hammered,Regular,chef_hammer_nail.png,progressive,The Chef is hammering a nail,NULL
1770697287,8763722d2f3eec65377c986d643c49d5,PennController,85,0,filler,NULL,PennController,86,_Header_,Start,1770696768744,5227,11,utku,42,11,5227,ctrl_prog_Chef_hammer,filler,Chef,hammer,hammered,Regular,chef_hammer_nail.png,progressive,The Chef is hammering a nail,NULL
1770697287,8763722d2f3eec65377c986d643c49d5,PennController,85,0,filler,NULL,PennController,86,_Header_,End,1770696768744,5227,11,utku,42,11,5227,ctrl_prog_Chef_hammer,filler,Chef,hammer,hammered,Regular,chef_hammer_nail.png,progressive,The Chef is hammering a nail,NULL
1770697287,8763722d2f3eec65377c986d643c49d5,PennController,85,0,filler,NULL,Scale,rating,Choice,7,1770696774377,5227,11,utku,42,11,5227,ctrl_prog_Chef_hammer,filler,Chef,hammer,hammered,Regular,chef_hammer_nail.png,progressive,The Chef is hammering a nail,NULL
1770697287,8763722d2f3eec65377c986d643c49d5,PennController,85,0,filler,NULL,PennController,86,_Trial_,End,1770696774777,5227,11,utku,42,11,5227,ctrl_prog_Chef_hammer,filler,Chef,hammer,hammered,Regular,chef_hammer_nail.png,progressive,The Chef is hammering a nail,NULL
1770697287,8763722d2f3eec65377c986d643c49d5,PennController,37,0,experiment,NULL,PennController,38,_Trial_,Start,1770696774778,3817,12,utku,42,12,3817,Pirate_dig,B,Pirate,dig,dug,Irregular,pirate_dig_hole.png,future,The Pirate will dig a hole,NULL
1770697287,8763722d2f3eec65377c986d643c49d5,PennController,37,0,experiment,NULL,PennController,38,_Header_,Start,1770696774778,3817,12,utku,42,12,3817,Pirate_dig,B,Pirate,dig,dug,Irregular,pirate_dig_hole.png,future,The Pirate will dig a hole,NULL
1770697287,8763722d2f3eec65377c986d643c49d5,PennController,37,0,experiment,NULL,PennController,38,_Header_,End,1770696774778,3817,12,utku,42,12,3817,Pirate_dig,B,Pirate,dig,dug,Irregular,pirate_dig_hole.png,future,The Pirate will dig a hole,NULL
1770697287,8763722d2f3eec65377c986d643c49d5,PennController,37,0,experiment,NULL,Scale,rating,Choice,4,1770696778998,3817,12,utku,42,12,3817,Pirate_dig,B,Pirate,dig,dug,Irregular,pirate_dig_hole.png,future,The Pirate will dig a hole,NULL
1770697287,8763722d2f3eec65377c986d643c49d5,PennController,37,0,experiment,NULL,PennController,38,_Trial_,End,1770696779403,3817,12,utku,42,12,3817,Pirate_dig,B,Pirate,dig,dug,Irregular,pirate_dig_hole.png,future,The Pirate will dig a hole,NULL
1770697287,8763722d2f3eec65377c986d643c49d5,PennController,92,0,filler,NULL,PennController,93,_Trial_,Start,1770696779405,3967,13,utku,42,13,3967,ctrl_prog_Pirate_sweep,filler,Pirate,sweep,swept,Irregular,pirate_sweep_floor.png,progressive,The Pirate is sweeping the floor,NULL
1770697287,8763722d2f3eec65377c986d643c49d5,PennController,92,0,filler,NULL,PennController,93,_Header_,Start,1770696779405,3967,13,utku,42,13,3967,ctrl_prog_Pirate_sweep,filler,Pirate,sweep,swept,Irregular,pirate_sweep_floor.png,progressive,The Pirate is sweeping the floor,NULL
1770697287,8763722d2f3eec65377c986d643c49d5,PennController,92,0,filler,NULL,PennController,93,_Header_,End,1770696779405,3967,13,utku,42,13,3967,ctrl_prog_Pirate_sweep,filler,Pirate,sweep,swept,Irregular,pirate_sweep_floor.png,progressive,The Pirate is sweeping the floor,NULL
1770697287,8763722d2f3eec65377c986d643c49d5,PennController,92,0,filler,NULL,Scale,rating,Choice,7,1770696783775,3967,13,utku,42,13,3967,ctrl_prog_Pirate_sweep,filler,Pirate,sweep,swept,Irregular,pirate_sweep_floor.png,progressive,The Pirate is sweeping the floor,NULL
1770697287,8763722d2f3eec65377c986d643c49d5,PennController,92,0,filler,NULL,PennController,93,_Trial_,End,1770696784179,3967,13,utku,42,13,3967,ctrl_prog_Pirate_sweep,filler,Pirate,sweep,swept,Irregular,pirate_sweep_floor.png,progressive,The Pirate is sweeping the floor,NULL
1770697287,8763722d2f3eec65377c986d643c49d5,PennController,19,0,experiment,NULL,PennController,20,_Trial_,Start,1770696784180,2964,14,utku,42,14,2964,Wizard_eat,B,Wizard,eat,ate,Irregular,wizard_eat_apple.png,future,The Wizard will eat an apple,NULL
1770697287,8763722d2f3eec65377c986d643c49d5,PennController,19,0,experiment,NULL,PennController,20,_Header_,Start,1770696784180,2964,14,utku,42,14,2964,Wizard_eat,B,Wizard,eat,ate,Irregular,wizard_eat_apple.png,future,The Wizard will eat an apple,NULL
1770697287,8763722d2f3eec65377c986d643c49d5,PennController,19,0,experiment,NULL,PennController,20,_Header_,End,1770696784180,2964,14,utku,42,14,2964,Wizard_eat,B,Wizard,eat,ate,Irregular,wizard_eat_apple.png,future,The Wizard will eat an apple,NULL
1770697287,8763722d2f3eec65377c986d643c49d5,PennController,19,0,experiment,NULL,Scale,rating,Choice,7,1770696787546,2964,14,utku,42,14,2964,Wizard_eat,B,Wizard,eat,ate,Irregular,wizard_eat_apple.png,future,The Wizard will eat an apple,NULL
1770697287,8763722d2f3eec65377c986d643c49d5,PennController,19,0,experiment,NULL,PennController,20,_Trial_,End,1770696787947,2964,14,utku,42,14,2964,Wizard_eat,B,Wizard,eat,ate,Irregular,wizard_eat_apple.png,future,The Wizard will eat an apple,NULL
1770697287,8763722d2f3eec65377c986d643c49d5,PennController,15,0,experiment,NULL,PennController,16,_Trial_,Start,1770696787948,2506,15,utku,42,15,2506,Wizard_climb,B,Wizard,climb,climbed,Regular,wizard_climb_ladder.png,future,The Wizard will climb a ladder,NULL
1770697287,8763722d2f3eec65377c986d643c49d5,PennController,15,0,experiment,NULL,PennController,16,_Header_,Start,1770696787948,2506,15,utku,42,15,2506,Wizard_climb,B,Wizard,climb,climbed,Regular,wizard_climb_ladder.png,future,The Wizard will climb a ladder,NULL
1770697287,8763722d2f3eec65377c986d643c49d5,PennController,15,0,experiment,NULL,PennController,16,_Header_,End,1770696787948,2506,15,utku,42,15,2506,Wizard_climb,B,Wizard,climb,climbed,Regular,wizard_climb_ladder.png,future,The Wizard will climb a ladder,NULL
1770697287,8763722d2f3eec65377c986d643c49d5,PennController,15,0,experiment,NULL,Scale,rating,Choice,4,1770696790860,2506,15,utku,42,15,2506,Wizard_climb,B,Wizard,climb,climbed,Regular,wizard_climb_ladder.png,future,The Wizard will climb a ladder,NULL
1770697287,8763722d2f3eec65377c986d643c49d5,PennController,15,0,experiment,NULL,PennController,16,_Trial_,End,1770696791265,2506,15,utku,42,15,2506,Wizard_climb,B,Wizard,climb,climbed,Regular,wizard_climb_ladder.png,future,The Wizard will climb a ladder,NULL
1770697287,8763722d2f3eec65377c986d643c49d5,PennController,112,0,filler,NULL,PennController,113,_Trial_,Start,1770696791267,4825,16,utku,42,16,4825,ctrl_hadalready_Pirate_play,filler,Pirate,play,played,Regular,pirate_play_guitar.png,had_already,The Pirate had already played the guitar,NULL
1770697287,8763722d2f3eec65377c986d643c49d5,PennController,112,0,filler,NULL,PennController,113,_Header_,Start,1770696791267,4825,16,utku,42,16,4825,ctrl_hadalready_Pirate_play,filler,Pirate,play,played,Regular,pirate_play_guitar.png,had_already,The Pirate had already played the guitar,NULL
1770697287,8763722d2f3eec65377c986d643c49d5,PennController,112,0,filler,NULL,PennController,113,_Header_,End,1770696791267,4825,16,utku,42,16,4825,ctrl_hadalready_Pirate_play,filler,Pirate,play,played,Regular,pirate_play_guitar.png,had_already,The Pirate had already played the guitar,NULL
1770697287,8763722d2f3eec65377c986d643c49d5,PennController,112,0,filler,NULL,Scale,rating,Choice,4,1770696796493,4825,16,utku,42,16,4825,ctrl_hadalready_Pirate_play,filler,Pirate,play,played,Regular,pirate_play_guitar.png,had_already,The Pirate had already played the guitar,NULL
1770697287,8763722d2f3eec65377c986d643c49d5,PennController,112,0,filler,NULL,PennController,113,_Trial_,End,1770696796895,4825,16,utku,42,16,4825,ctrl_hadalready_Pirate_play,filler,Pirate,play,played,Regular,pirate_play_guitar.png,had_already,The Pirate had already played the guitar,NULL
1770697287,8763722d2f3eec65377c986d643c49d5,PennController,49,0,experiment,NULL,PennController,50,_Trial_,Start,1770696796896,4693,17,utku,42,17,4693,Pirate_stir,B,Pirate,stir,stirred,Regular,pirate_stir_pot.png,future,The Pirate will stir a pot,NULL
1770697287,8763722d2f3eec65377c986d643c49d5,PennController,49,0,experiment,NULL,PennController,50,_Header_,Start,1770696796896,4693,17,utku,42,17,4693,Pirate_stir,B,Pirate,stir,stirred,Regular,pirate_stir_pot.png,future,The Pirate will stir a pot,NULL
1770697287,8763722d2f3eec65377c986d643c49d5,PennController,49,0,experiment,NULL,PennController,50,_Header_,End,1770696796896,4693,17,utku,42,17,4693,Pirate_stir,B,Pirate,stir,stirred,Regular,pirate_stir_pot.png,future,The Pirate will stir a pot,NULL
1770697287,8763722d2f3eec65377c986d643c49d5,PennController,49,0,experiment,NULL,Scale,rating,Choice,7,1770696801992,4693,17,utku,42,17,4693,Pirate_stir,B,Pirate,stir,stirred,Regular,pirate_stir_pot.png,future,The Pirate will stir a pot,NULL
1770697287,8763722d2f3eec65377c986d643c49d5,PennController,49,0,experiment,NULL,PennController,50,_Trial_,End,1770696802396,4693,17,utku,42,17,4693,Pirate_stir,B,Pirate,stir,stirred,Regular,pirate_stir_pot.png,future,The Pirate will stir a pot,NULL
1770697287,8763722d2f3eec65377c986d643c49d5,PennController,102,0,filler,NULL,PennController,103,_Trial_,Start,1770696802398,3818,18,utku,42,18,3818,ctrl_hadalready_Chef_play,filler,Chef,play,played,Regular,chef_play_guitar.png,had_already,The Chef had already played the guitar,NULL
1770697287,8763722d2f3eec65377c986d643c49d5,PennController,102,0,filler,NULL,PennController,103,_Header_,Start,1770696802398,3818,18,utku,42,18,3818,ctrl_hadalready_Chef_play,filler,Chef,play,played,Regular,chef_play_guitar.png,had_already,The Chef had already played the guitar,NULL
1770697287,8763722d2f3eec65377c986d643c49d5,PennController,102,0,filler,NULL,PennController,103,_Header_,End,1770696802398,3818,18,utku,42,18,3818,ctrl_hadalready_Chef_play,filler,Chef,play,played,Regular,chef_play_guitar.png,had_already,The Chef had already played the guitar,NULL
1770697287,8763722d2f3eec65377c986d643c49d5,PennController,102,0,filler,NULL,Scale,rating,Choice,6,1770696806619,3818,18,utku,42,18,3818,ctrl_hadalready_Chef_play,filler,Chef,play,played,Regular,chef_play_guitar.png,had_already,The Chef had already played the guitar,NULL
1770697287,8763722d2f3eec65377c986d643c49d5,PennController,102,0,filler,NULL,PennController,103,_Trial_,End,1770696807023,3818,18,utku,42,18,3818,ctrl_hadalready_Chef_play,filler,Chef,play,played,Regular,chef_play_guitar.png,had_already,The Chef had already played the guitar,NULL
1770697287,8763722d2f3eec65377c986d643c49d5,PennController,44,0,experiment,NULL,PennController,45,_Trial_,Start,1770696807025,2887,19,utku,42,19,2887,Pirate_peel,B,Pirate,peel,peeled,Regular,pirate_peel_banana.png,past,The Pirate peeled a banana,NULL
1770697287,8763722d2f3eec65377c986d643c49d5,PennController,44,0,experiment,NULL,PennController,45,_Header_,Start,1770696807025,2887,19,utku,42,19,2887,Pirate_peel,B,Pirate,peel,peeled,Regular,pirate_peel_banana.png,past,The Pirate peeled a banana,NULL
1770697287,8763722d2f3eec65377c986d643c49d5,PennController,44,0,experiment,NULL,PennController,45,_Header_,End,1770696807025,2887,19,utku,42,19,2887,Pirate_peel,B,Pirate,peel,peeled,Regular,pirate_peel_banana.png,past,The Pirate peeled a banana,NULL
1770697287,8763722d2f3eec65377c986d643c49d5,PennController,44,0,experiment,NULL,Scale,rating,Choice,7,1770696810315,2887,19,utku,42,19,2887,Pirate_peel,B,Pirate,peel,peeled,Regular,pirate_peel_banana.png,past,The Pirate peeled a banana,NULL
1770697287,8763722d2f3eec65377c986d643c49d5,PennController,44,0,experiment,NULL,PennController,45,_Trial_,End,1770696810719,2887,19,utku,42,19,2887,Pirate_peel,B,Pirate,peel,peeled,Regular,pirate_peel_banana.png,past,The Pirate peeled a banana,NULL
1770697287,8763722d2f3eec65377c986d643c49d5,PennController,38,0,experiment,NULL,PennController,39,_Trial_,Start,1770696810720,4428,20,utku,42,20,4428,Pirate_drink,B,Pirate,drink,drank,Irregular,pirate_drink_coffee.png,past,The Pirate drank coffee,NULL
1770697287,8763722d2f3eec65377c986d643c49d5,PennController,38,0,experiment,NULL,PennController,39,_Header_,Start,1770696810720,4428,20,utku,42,20,4428,Pirate_drink,B,Pirate,drink,drank,Irregular,pirate_drink_coffee.png,past,The Pirate drank coffee,NULL
1770697287,8763722d2f3eec65377c986d643c49d5,PennController,38,0,experiment,NULL,PennController,39,_Header_,End,1770696810720,4428,20,utku,42,20,4428,Pirate_drink,B,Pirate,drink,drank,Irregular,pirate_drink_coffee.png,past,The Pirate drank coffee,NULL
1770697287,8763722d2f3eec65377c986d643c49d5,PennController,38,0,experiment,NULL,Scale,rating,Choice,7,1770696815553,4428,20,utku,42,20,4428,Pirate_drink,B,Pirate,drink,drank,Irregular,pirate_drink_coffee.png,past,The Pirate drank coffee,NULL
1770697287,8763722d2f3eec65377c986d643c49d5,PennController,38,0,experiment,NULL,PennController,39,_Trial_,End,1770696815955,4428,20,utku,42,20,4428,Pirate_drink,B,Pirate,drink,drank,Irregular,pirate_drink_coffee.png,past,The Pirate drank coffee,NULL
1770697287,8763722d2f3eec65377c986d643c49d5,PennController,108,0,filler,NULL,PennController,109,_Trial_,Start,1770696815957,2780,21,utku,42,21,2780,ctrl_hadalready_Wizard_stir,filler,Wizard,stir,stirred,Regular,wizard_stir_pot.png,had_already,The Wizard had already stirred a pot,NULL
1770697287,8763722d2f3eec65377c986d643c49d5,PennController,108,0,filler,NULL,PennController,109,_Header_,Start,1770696815957,2780,21,utku,42,21,2780,ctrl_hadalready_Wizard_stir,filler,Wizard,stir,stirred,Regular,wizard_stir_pot.png,had_already,The Wizard had already stirred a pot,NULL
1770697287,8763722d2f3eec65377c986d643c49d5,PennController,108,0,filler,NULL,PennController,109,_Header_,End,1770696815957,2780,21,utku,42,21,2780,ctrl_hadalready_Wizard_stir,filler,Wizard,stir,stirred,Regular,wizard_stir_pot.png,had_already,The Wizard had already stirred a pot,NULL
1770697287,8763722d2f3eec65377c986d643c49d5,PennController,108,0,filler,NULL,Scale,rating,Choice,3,1770696819140,2780,21,utku,42,21,2780,ctrl_hadalready_Wizard_stir,filler,Wizard,stir,stirred,Regular,wizard_stir_pot.png,had_already,The Wizard had already stirred a pot,NULL
1770697287,8763722d2f3eec65377c986d643c49d5,PennController,108,0,filler,NULL,PennController,109,_Trial_,End,1770696819543,2780,21,utku,42,21,2780,ctrl_hadalready_Wizard_stir,filler,Wizard,stir,stirred,Regular,wizard_stir_pot.png,had_already,The Wizard had already stirred a pot,NULL
1770697287,8763722d2f3eec65377c986d643c49d5,PennController,69,0,experiment,NULL,PennController,70,_Trial_,Start,1770696819545,3091,22,utku,42,22,3091,Chef_stir,B,Chef,stir,stirred,Regular,chef_stir_pot.png,future,The Chef will stir a pot,NULL
1770697287,8763722d2f3eec65377c986d643c49d5,PennController,69,0,experiment,NULL,PennController,70,_Header_,Start,1770696819545,3091,22,utku,42,22,3091,Chef_stir,B,Chef,stir,stirred,Regular,chef_stir_pot.png,future,The Chef will stir a pot,NULL
1770697287,8763722d2f3eec65377c986d643c49d5,PennController,69,0,experiment,NULL,PennController,70,_Header_,End,1770696819545,3091,22,utku,42,22,3091,Chef_stir,B,Chef,stir,stirred,Regular,chef_stir_pot.png,future,The Chef will stir a pot,NULL
1770697287,8763722d2f3eec65377c986d643c49d5,PennController,69,0,experiment,NULL,Scale,rating,Choice,6,1770696823042,3091,22,utku,42,22,3091,Chef_stir,B,Chef,stir,stirred,Regular,chef_stir_pot.png,future,The Chef will stir a pot,NULL
1770697287,8763722d2f3eec65377c986d643c49d5,PennController,69,0,experiment,NULL,PennController,70,_Trial_,End,1770696823445,3091,22,utku,42,22,3091,Chef_stir,B,Chef,stir,stirred,Regular,chef_stir_pot.png,future,The Chef will stir a pot,NULL
1770697287,8763722d2f3eec65377c986d643c49d5,PennController,89,0,filler,NULL,PennController,90,_Trial_,Start,1770696823446,2910,23,utku,42,23,2910,ctrl_prog_Chef_wash,filler,Chef,wash,washed,Regular,chef_wash_dish.png,progressive,The Chef is washing a dish,NULL
1770697287,8763722d2f3eec65377c986d643c49d5,PennController,89,0,filler,NULL,PennController,90,_Header_,Start,1770696823446,2910,23,utku,42,23,2910,ctrl_prog_Chef_wash,filler,Chef,wash,washed,Regular,chef_wash_dish.png,progressive,The Chef is washing a dish,NULL
1770697287,8763722d2f3eec65377c986d643c49d5,PennController,89,0,filler,NULL,PennController,90,_Header_,End,1770696823446,2910,23,utku,42,23,2910,ctrl_prog_Chef_wash,filler,Chef,wash,washed,Regular,chef_wash_dish.png,progressive,The Chef is washing a dish,NULL
1770697287,8763722d2f3eec65377c986d643c49d5,PennController,89,0,filler,NULL,Scale,rating,Choice,7,1770696826760,2910,23,utku,42,23,2910,ctrl_prog_Chef_wash,filler,Chef,wash,washed,Regular,chef_wash_dish.png,progressive,The Chef is washing a dish,NULL
1770697287,8763722d2f3eec65377c986d643c49d5,PennController,89,0,filler,NULL,PennController,90,_Trial_,End,1770696827163,2910,23,utku,42,23,2910,ctrl_prog_Chef_wash,filler,Chef,wash,washed,Regular,chef_wash_dish.png,progressive,The Chef is washing a dish,NULL
1770697287,8763722d2f3eec65377c986d643c49d5,PennController,34,0,experiment,NULL,PennController,35,_Trial_,Start,1770696827165,4720,24,utku,42,24,4720,Pirate_build,B,Pirate,build,built,Irregular,pirate_build_tower.png,past,The Pirate built a tower,NULL
1770697287,8763722d2f3eec65377c986d643c49d5,PennController,34,0,experiment,NULL,PennController,35,_Header_,Start,1770696827165,4720,24,utku,42,24,4720,Pirate_build,B,Pirate,build,built,Irregular,pirate_build_tower.png,past,The Pirate built a tower,NULL
1770697287,8763722d2f3eec65377c986d643c49d5,PennController,34,0,experiment,NULL,PennController,35,_Header_,End,1770696827165,4720,24,utku,42,24,4720,Pirate_build,B,Pirate,build,built,Irregular,pirate_build_tower.png,past,The Pirate built a tower,NULL
1770697287,8763722d2f3eec65377c986d643c49d5,PennController,34,0,experiment,NULL,Scale,rating,Choice,5,1770696832287,4720,24,utku,42,24,4720,Pirate_build,B,Pirate,build,built,Irregular,pirate_build_tower.png,past,The Pirate built a tower,NULL
1770697287,8763722d2f3eec65377c986d643c49d5,PennController,34,0,experiment,NULL,PennController,35,_Trial_,End,1770696832689,4720,24,utku,42,24,4720,Pirate_build,B,Pirate,build,built,Irregular,pirate_build_tower.png,past,The Pirate built a tower,NULL
# 17. Comments.
1770697287,8763722d2f3eec65377c986d643c49d5,PennController,12,0,break,NULL,PennController,11,_Trial_,Start,1770696832690,4720,24,utku,42,NULL
1770697287,8763722d2f3eec65377c986d643c49d5,PennController,12,0,break,NULL,PennController,11,_Header_,Start,1770696832690,4720,24,utku,42,NULL
1770697287,8763722d2f3eec65377c986d643c49d5,PennController,12,0,break,NULL,PennController,11,_Header_,End,1770696832690,4720,24,utku,42,NULL
1770697287,8763722d2f3eec65377c986d643c49d5,PennController,12,0,break,NULL,PennController,11,_Trial_,End,1770696836189,4720,24,utku,42,NULL
# 17. trialN.
# 18. RT-answer.
# 19. item_id.
# 20. group.
# 21. character.
# 22. verb.
# 23. past_form.
# 24. type.
# 25. picture.
# 26. tense.
# 27. sentence.
# 28. Comments.
1770697287,8763722d2f3eec65377c986d643c49d5,PennController,62,0,experiment,NULL,PennController,63,_Trial_,Start,1770696836190,2422,25,utku,42,25,2422,Chef_light,B,Chef,light,lit,Irregular,chef_light_candle.png,past,The Chef lit a candle,NULL
1770697287,8763722d2f3eec65377c986d643c49d5,PennController,62,0,experiment,NULL,PennController,63,_Header_,Start,1770696836190,2422,25,utku,42,25,2422,Chef_light,B,Chef,light,lit,Irregular,chef_light_candle.png,past,The Chef lit a candle,NULL
1770697287,8763722d2f3eec65377c986d643c49d5,PennController,62,0,experiment,NULL,PennController,63,_Header_,End,1770696836190,2422,25,utku,42,25,2422,Chef_light,B,Chef,light,lit,Irregular,chef_light_candle.png,past,The Chef lit a candle,NULL
1770697287,8763722d2f3eec65377c986d643c49d5,PennController,62,0,experiment,NULL,Scale,rating,Choice,7,1770696839018,2422,25,utku,42,25,2422,Chef_light,B,Chef,light,lit,Irregular,chef_light_candle.png,past,The Chef lit a candle,NULL
1770697287,8763722d2f3eec65377c986d643c49d5,PennController,62,0,experiment,NULL,PennController,63,_Trial_,End,1770696839419,2422,25,utku,42,25,2422,Chef_light,B,Chef,light,lit,Irregular,chef_light_candle.png,past,The Chef lit a candle,NULL
1770697287,8763722d2f3eec65377c986d643c49d5,PennController,79,0,filler,NULL,PennController,80,_Trial_,Start,1770696839421,2250,26,utku,42,26,2250,ctrl_prog_Pirate_wash,filler,Pirate,wash,washed,Regular,pirate_wash_dish.png,progressive,The Pirate is washing a dish,NULL
1770697287,8763722d2f3eec65377c986d643c49d5,PennController,79,0,filler,NULL,PennController,80,_Header_,Start,1770696839421,2250,26,utku,42,26,2250,ctrl_prog_Pirate_wash,filler,Pirate,wash,washed,Regular,pirate_wash_dish.png,progressive,The Pirate is washing a dish,NULL
1770697287,8763722d2f3eec65377c986d643c49d5,PennController,79,0,filler,NULL,PennController,80,_Header_,End,1770696839421,2250,26,utku,42,26,2250,ctrl_prog_Pirate_wash,filler,Pirate,wash,washed,Regular,pirate_wash_dish.png,progressive,The Pirate is washing a dish,NULL
1770697287,8763722d2f3eec65377c986d643c49d5,PennController,79,0,filler,NULL,Scale,rating,Choice,7,1770696842073,2250,26,utku,42,26,2250,ctrl_prog_Pirate_wash,filler,Pirate,wash,washed,Regular,pirate_wash_dish.png,progressive,The Pirate is washing a dish,NULL
1770697287,8763722d2f3eec65377c986d643c49d5,PennController,79,0,filler,NULL,PennController,80,_Trial_,End,1770696842476,2250,26,utku,42,26,2250,ctrl_prog_Pirate_wash,filler,Pirate,wash,washed,Regular,pirate_wash_dish.png,progressive,The Pirate is washing a dish,NULL
1770697287,8763722d2f3eec65377c986d643c49d5,PennController,67,0,experiment,NULL,PennController,68,_Trial_,Start,1770696842477,2950,27,utku,42,27,2950,Chef_ride,B,Chef,ride,rode,Irregular,chef_ride_bicycle.png,future,The Chef will ride a bicycle,NULL
1770697287,8763722d2f3eec65377c986d643c49d5,PennController,67,0,experiment,NULL,PennController,68,_Header_,Start,1770696842477,2950,27,utku,42,27,2950,Chef_ride,B,Chef,ride,rode,Irregular,chef_ride_bicycle.png,future,The Chef will ride a bicycle,NULL
1770697287,8763722d2f3eec65377c986d643c49d5,PennController,67,0,experiment,NULL,PennController,68,_Header_,End,1770696842477,2950,27,utku,42,27,2950,Chef_ride,B,Chef,ride,rode,Irregular,chef_ride_bicycle.png,future,The Chef will ride a bicycle,NULL
1770697287,8763722d2f3eec65377c986d643c49d5,PennController,67,0,experiment,NULL,Scale,rating,Choice,7,1770696845828,2950,27,utku,42,27,2950,Chef_ride,B,Chef,ride,rode,Irregular,chef_ride_bicycle.png,future,The Chef will ride a bicycle,NULL
1770697287,8763722d2f3eec65377c986d643c49d5,PennController,67,0,experiment,NULL,PennController,68,_Trial_,End,1770696846228,2950,27,utku,42,27,2950,Chef_ride,B,Chef,ride,rode,Irregular,chef_ride_bicycle.png,future,The Chef will ride a bicycle,NULL
1770697287,8763722d2f3eec65377c986d643c49d5,PennController,87,0,filler,NULL,PennController,88,_Trial_,Start,1770696846229,2439,28,utku,42,28,2439,ctrl_prog_Chef_kick,filler,Chef,kick,kicked,Regular,chef_kick_ball.png,progressive,The Chef is kicking a ball,NULL
1770697287,8763722d2f3eec65377c986d643c49d5,PennController,87,0,filler,NULL,PennController,88,_Header_,Start,1770696846229,2439,28,utku,42,28,2439,ctrl_prog_Chef_kick,filler,Chef,kick,kicked,Regular,chef_kick_ball.png,progressive,The Chef is kicking a ball,NULL
1770697287,8763722d2f3eec65377c986d643c49d5,PennController,87,0,filler,NULL,PennController,88,_Header_,End,1770696846229,2439,28,utku,42,28,2439,ctrl_prog_Chef_kick,filler,Chef,kick,kicked,Regular,chef_kick_ball.png,progressive,The Chef is kicking a ball,NULL
1770697287,8763722d2f3eec65377c986d643c49d5,PennController,87,0,filler,NULL,Scale,rating,Choice,7,1770696849072,2439,28,utku,42,28,2439,ctrl_prog_Chef_kick,filler,Chef,kick,kicked,Regular,chef_kick_ball.png,progressive,The Chef is kicking a ball,NULL
1770697287,8763722d2f3eec65377c986d643c49d5,PennController,87,0,filler,NULL,PennController,88,_Trial_,End,1770696849474,2439,28,utku,42,28,2439,ctrl_prog_Chef_kick,filler,Chef,kick,kicked,Regular,chef_kick_ball.png,progressive,The Chef is kicking a ball,NULL
1770697287,8763722d2f3eec65377c986d643c49d5,PennController,18,0,experiment,NULL,PennController,19,_Trial_,Start,1770696849475,4995,29,utku,42,29,4995,Wizard_drink,B,Wizard,drink,drank,Irregular,wizard_drink_coffee.png,past,The Wizard drank coffee,NULL
1770697287,8763722d2f3eec65377c986d643c49d5,PennController,18,0,experiment,NULL,PennController,19,_Header_,Start,1770696849475,4995,29,utku,42,29,4995,Wizard_drink,B,Wizard,drink,drank,Irregular,wizard_drink_coffee.png,past,The Wizard drank coffee,NULL
1770697287,8763722d2f3eec65377c986d643c49d5,PennController,18,0,experiment,NULL,PennController,19,_Header_,End,1770696849476,4995,29,utku,42,29,4995,Wizard_drink,B,Wizard,drink,drank,Irregular,wizard_drink_coffee.png,past,The Wizard drank coffee,NULL
1770697287,8763722d2f3eec65377c986d643c49d5,PennController,18,0,experiment,NULL,Scale,rating,Choice,6,1770696854874,4995,29,utku,42,29,4995,Wizard_drink,B,Wizard,drink,drank,Irregular,wizard_drink_coffee.png,past,The Wizard drank coffee,NULL
1770697287,8763722d2f3eec65377c986d643c49d5,PennController,18,0,experiment,NULL,PennController,19,_Trial_,End,1770696855275,4995,29,utku,42,29,4995,Wizard_drink,B,Wizard,drink,drank,Irregular,wizard_drink_coffee.png,past,The Wizard drank coffee,NULL
1770697287,8763722d2f3eec65377c986d643c49d5,PennController,72,0,experiment,NULL,PennController,73,_Trial_,Start,1770696855277,3018,30,utku,42,30,3018,Chef_wash,B,Chef,wash,washed,Regular,chef_wash_dish.png,past,The Chef washed a dish,NULL
1770697287,8763722d2f3eec65377c986d643c49d5,PennController,72,0,experiment,NULL,PennController,73,_Header_,Start,1770696855277,3018,30,utku,42,30,3018,Chef_wash,B,Chef,wash,washed,Regular,chef_wash_dish.png,past,The Chef washed a dish,NULL
1770697287,8763722d2f3eec65377c986d643c49d5,PennController,72,0,experiment,NULL,PennController,73,_Header_,End,1770696855278,3018,30,utku,42,30,3018,Chef_wash,B,Chef,wash,washed,Regular,chef_wash_dish.png,past,The Chef washed a dish,NULL
1770697287,8763722d2f3eec65377c986d643c49d5,PennController,72,0,experiment,NULL,Scale,rating,Choice,3,1770696858697,3018,30,utku,42,30,3018,Chef_wash,B,Chef,wash,washed,Regular,chef_wash_dish.png,past,The Chef washed a dish,NULL
1770697287,8763722d2f3eec65377c986d643c49d5,PennController,72,0,experiment,NULL,PennController,73,_Trial_,End,1770696859098,3018,30,utku,42,30,3018,Chef_wash,B,Chef,wash,washed,Regular,chef_wash_dish.png,past,The Chef washed a dish,NULL
1770697287,8763722d2f3eec65377c986d643c49d5,PennController,105,0,filler,NULL,PennController,106,_Trial_,Start,1770696859100,2617,31,utku,42,31,2617,ctrl_hadalready_Pirate_push,filler,Pirate,push,pushed,Regular,pirate_push_cart.png,had_already,The Pirate had already pushed a cart,NULL
1770697287,8763722d2f3eec65377c986d643c49d5,PennController,105,0,filler,NULL,PennController,106,_Header_,Start,1770696859100,2617,31,utku,42,31,2617,ctrl_hadalready_Pirate_push,filler,Pirate,push,pushed,Regular,pirate_push_cart.png,had_already,The Pirate had already pushed a cart,NULL
1770697287,8763722d2f3eec65377c986d643c49d5,PennController,105,0,filler,NULL,PennController,106,_Header_,End,1770696859100,2617,31,utku,42,31,2617,ctrl_hadalready_Pirate_push,filler,Pirate,push,pushed,Regular,pirate_push_cart.png,had_already,The Pirate had already pushed a cart,NULL
1770697287,8763722d2f3eec65377c986d643c49d5,PennController,105,0,filler,NULL,Scale,rating,Choice,3,1770696862123,2617,31,utku,42,31,2617,ctrl_hadalready_Pirate_push,filler,Pirate,push,pushed,Regular,pirate_push_cart.png,had_already,The Pirate had already pushed a cart,NULL
1770697287,8763722d2f3eec65377c986d643c49d5,PennController,105,0,filler,NULL,PennController,106,_Trial_,End,1770696862525,2617,31,utku,42,31,2617,ctrl_hadalready_Pirate_push,filler,Pirate,push,pushed,Regular,pirate_push_cart.png,had_already,The Pirate had already pushed a cart,NULL
1770697287,8763722d2f3eec65377c986d643c49d5,PennController,61,0,experiment,NULL,PennController,62,_Trial_,Start,1770696862527,2648,32,utku,42,32,2648,Chef_kick,B,Chef,kick,kicked,Regular,chef_kick_ball.png,future,The Chef will kick a ball,NULL
1770697287,8763722d2f3eec65377c986d643c49d5,PennController,61,0,experiment,NULL,PennController,62,_Header_,Start,1770696862527,2648,32,utku,42,32,2648,Chef_kick,B,Chef,kick,kicked,Regular,chef_kick_ball.png,future,The Chef will kick a ball,NULL
1770697287,8763722d2f3eec65377c986d643c49d5,PennController,61,0,experiment,NULL,PennController,62,_Header_,End,1770696862527,2648,32,utku,42,32,2648,Chef_kick,B,Chef,kick,kicked,Regular,chef_kick_ball.png,future,The Chef will kick a ball,NULL
1770697287,8763722d2f3eec65377c986d643c49d5,PennController,61,0,experiment,NULL,Scale,rating,Choice,3,1770696865577,2648,32,utku,42,32,2648,Chef_kick,B,Chef,kick,kicked,Regular,chef_kick_ball.png,future,The Chef will kick a ball,NULL
1770697287,8763722d2f3eec65377c986d643c49d5,PennController,61,0,experiment,NULL,PennController,62,_Trial_,End,1770696865981,2648,32,utku,42,32,2648,Chef_kick,B,Chef,kick,kicked,Regular,chef_kick_ball.png,future,The Chef will kick a ball,NULL
1770697287,8763722d2f3eec65377c986d643c49d5,PennController,78,0,filler,NULL,PennController,79,_Trial_,Start,1770696865982,2778,33,utku,42,33,2778,ctrl_prog_Pirate_ride,filler,Pirate,ride,rode,Irregular,pirate_ride_bicycle.png,progressive,The Pirate is riding a bicycle,NULL
1770697287,8763722d2f3eec65377c986d643c49d5,PennController,78,0,filler,NULL,PennController,79,_Header_,Start,1770696865982,2778,33,utku,42,33,2778,ctrl_prog_Pirate_ride,filler,Pirate,ride,rode,Irregular,pirate_ride_bicycle.png,progressive,The Pirate is riding a bicycle,NULL
1770697287,8763722d2f3eec65377c986d643c49d5,PennController,78,0,filler,NULL,PennController,79,_Header_,End,1770696865982,2778,33,utku,42,33,2778,ctrl_prog_Pirate_ride,filler,Pirate,ride,rode,Irregular,pirate_ride_bicycle.png,progressive,The Pirate is riding a bicycle,NULL
1770697287,8763722d2f3eec65377c986d643c49d5,PennController,78,0,filler,NULL,Scale,rating,Choice,7,1770696869161,2778,33,utku,42,33,2778,ctrl_prog_Pirate_ride,filler,Pirate,ride,rode,Irregular,pirate_ride_bicycle.png,progressive,The Pirate is riding a bicycle,NULL
1770697287,8763722d2f3eec65377c986d643c49d5,PennController,78,0,filler,NULL,PennController,79,_Trial_,End,1770696869565,2778,33,utku,42,33,2778,ctrl_prog_Pirate_ride,filler,Pirate,ride,rode,Irregular,pirate_ride_bicycle.png,progressive,The Pirate is riding a bicycle,NULL
1770697287,8763722d2f3eec65377c986d643c49d5,PennController,41,0,experiment,NULL,PennController,42,_Trial_,Start,1770696869567,4551,34,utku,42,34,4551,Pirate_kick,B,Pirate,kick,kicked,Regular,pirate_kick_ball.png,future,The Pirate will kick a ball,NULL
1770697287,8763722d2f3eec65377c986d643c49d5,PennController,41,0,experiment,NULL,PennController,42,_Header_,Start,1770696869567,4551,34,utku,42,34,4551,Pirate_kick,B,Pirate,kick,kicked,Regular,pirate_kick_ball.png,future,The Pirate will kick a ball,NULL
1770697287,8763722d2f3eec65377c986d643c49d5,PennController,41,0,experiment,NULL,PennController,42,_Header_,End,1770696869567,4551,34,utku,42,34,4551,Pirate_kick,B,Pirate,kick,kicked,Regular,pirate_kick_ball.png,future,The Pirate will kick a ball,NULL
1770697287,8763722d2f3eec65377c986d643c49d5,PennController,41,0,experiment,NULL,Scale,rating,Choice,6,1770696874520,4551,34,utku,42,34,4551,Pirate_kick,B,Pirate,kick,kicked,Regular,pirate_kick_ball.png,future,The Pirate will kick a ball,NULL
1770697287,8763722d2f3eec65377c986d643c49d5,PennController,41,0,experiment,NULL,PennController,42,_Trial_,End,1770696874922,4551,34,utku,42,34,4551,Pirate_kick,B,Pirate,kick,kicked,Regular,pirate_kick_ball.png,future,The Pirate will kick a ball,NULL
1770697287,8763722d2f3eec65377c986d643c49d5,PennController,58,0,experiment,NULL,PennController,59,_Trial_,Start,1770696874923,5334,35,utku,42,35,5334,Chef_drink,B,Chef,drink,drank,Irregular,chef_drink_coffee.png,past,The Chef drank coffee,NULL
1770697287,8763722d2f3eec65377c986d643c49d5,PennController,58,0,experiment,NULL,PennController,59,_Header_,Start,1770696874923,5334,35,utku,42,35,5334,Chef_drink,B,Chef,drink,drank,Irregular,chef_drink_coffee.png,past,The Chef drank coffee,NULL
1770697287,8763722d2f3eec65377c986d643c49d5,PennController,58,0,experiment,NULL,PennController,59,_Header_,End,1770696874923,5334,35,utku,42,35,5334,Chef_drink,B,Chef,drink,drank,Irregular,chef_drink_coffee.png,past,The Chef drank coffee,NULL
1770697287,8763722d2f3eec65377c986d643c49d5,PennController,58,0,experiment,NULL,Scale,rating,Choice,5,1770696880659,5334,35,utku,42,35,5334,Chef_drink,B,Chef,drink,drank,Irregular,chef_drink_coffee.png,past,The Chef drank coffee,NULL
1770697287,8763722d2f3eec65377c986d643c49d5,PennController,58,0,experiment,NULL,PennController,59,_Trial_,End,1770696881063,5334,35,utku,42,35,5334,Chef_drink,B,Chef,drink,drank,Irregular,chef_drink_coffee.png,past,The Chef drank coffee,NULL
1770697287,8763722d2f3eec65377c986d643c49d5,PennController,99,0,filler,NULL,PennController,100,_Trial_,Start,1770696881065,3774,36,utku,42,36,3774,ctrl_hadalready_Pirate_smell,filler,Pirate,smell,smelled,Regular,pirate_smell_flower.png,had_already,The Pirate had already smelled a flower,NULL
1770697287,8763722d2f3eec65377c986d643c49d5,PennController,99,0,filler,NULL,PennController,100,_Header_,Start,1770696881065,3774,36,utku,42,36,3774,ctrl_hadalready_Pirate_smell,filler,Pirate,smell,smelled,Regular,pirate_smell_flower.png,had_already,The Pirate had already smelled a flower,NULL
1770697287,8763722d2f3eec65377c986d643c49d5,PennController,99,0,filler,NULL,PennController,100,_Header_,End,1770696881065,3774,36,utku,42,36,3774,ctrl_hadalready_Pirate_smell,filler,Pirate,smell,smelled,Regular,pirate_smell_flower.png,had_already,The Pirate had already smelled a flower,NULL
1770697287,8763722d2f3eec65377c986d643c49d5,PennController,99,0,filler,NULL,Scale,rating,Choice,3,1770696885242,3774,36,utku,42,36,3774,ctrl_hadalready_Pirate_smell,filler,Pirate,smell,smelled,Regular,pirate_smell_flower.png,had_already,The Pirate had already smelled a flower,NULL
1770697287,8763722d2f3eec65377c986d643c49d5,PennController,99,0,filler,NULL,PennController,100,_Trial_,End,1770696885646,3774,36,utku,42,36,3774,ctrl_hadalready_Pirate_smell,filler,Pirate,smell,smelled,Regular,pirate_smell_flower.png,had_already,The Pirate had already smelled a flower,NULL
1770697287,8763722d2f3eec65377c986d643c49d5,PennController,55,0,experiment,NULL,PennController,56,_Trial_,Start,1770696885647,3287,37,utku,42,37,3287,Chef_climb,B,Chef,climb,climbed,Regular,chef_climb_ladder.png,future,The Chef will climb a ladder,NULL
1770697287,8763722d2f3eec65377c986d643c49d5,PennController,55,0,experiment,NULL,PennController,56,_Header_,Start,1770696885647,3287,37,utku,42,37,3287,Chef_climb,B,Chef,climb,climbed,Regular,chef_climb_ladder.png,future,The Chef will climb a ladder,NULL
1770697287,8763722d2f3eec65377c986d643c49d5,PennController,55,0,experiment,NULL,PennController,56,_Header_,End,1770696885647,3287,37,utku,42,37,3287,Chef_climb,B,Chef,climb,climbed,Regular,chef_climb_ladder.png,future,The Chef will climb a ladder,NULL
1770697287,8763722d2f3eec65377c986d643c49d5,PennController,55,0,experiment,NULL,Scale,rating,Choice,2,1770696889338,3287,37,utku,42,37,3287,Chef_climb,B,Chef,climb,climbed,Regular,chef_climb_ladder.png,future,The Chef will climb a ladder,NULL
1770697287,8763722d2f3eec65377c986d643c49d5,PennController,55,0,experiment,NULL,PennController,56,_Trial_,End,1770696889742,3287,37,utku,42,37,3287,Chef_climb,B,Chef,climb,climbed,Regular,chef_climb_ladder.png,future,The Chef will climb a ladder,NULL
1770697287,8763722d2f3eec65377c986d643c49d5,PennController,74,0,filler,NULL,PennController,75,_Trial_,Start,1770696889744,4329,38,utku,42,38,4329,ctrl_prog_Wizard_climb,filler,Wizard,climb,climbed,Regular,wizard_climb_ladder.png,progressive,The Wizard is climbing a ladder,NULL
1770697287,8763722d2f3eec65377c986d643c49d5,PennController,74,0,filler,NULL,PennController,75,_Header_,Start,1770696889744,4329,38,utku,42,38,4329,ctrl_prog_Wizard_climb,filler,Wizard,climb,climbed,Regular,wizard_climb_ladder.png,progressive,The Wizard is climbing a ladder,NULL
1770697287,8763722d2f3eec65377c986d643c49d5,PennController,74,0,filler,NULL,PennController,75,_Header_,End,1770696889744,4329,38,utku,42,38,4329,ctrl_prog_Wizard_climb,filler,Wizard,climb,climbed,Regular,wizard_climb_ladder.png,progressive,The Wizard is climbing a ladder,NULL
1770697287,8763722d2f3eec65377c986d643c49d5,PennController,74,0,filler,NULL,Scale,rating,Choice,7,1770696894476,4329,38,utku,42,38,4329,ctrl_prog_Wizard_climb,filler,Wizard,climb,climbed,Regular,wizard_climb_ladder.png,progressive,The Wizard is climbing a ladder,NULL
1770697287,8763722d2f3eec65377c986d643c49d5,PennController,74,0,filler,NULL,PennController,75,_Trial_,End,1770696894881,4329,38,utku,42,38,4329,ctrl_prog_Wizard_climb,filler,Wizard,climb,climbed,Regular,wizard_climb_ladder.png,progressive,The Wizard is climbing a ladder,NULL
1770697287,8763722d2f3eec65377c986d643c49d5,PennController,57,0,experiment,NULL,PennController,58,_Trial_,Start,1770696894882,2595,39,utku,42,39,2595,Chef_dig,B,Chef,dig,dug,Irregular,chef_dig_hole.png,future,The Chef will dig a hole,NULL
1770697287,8763722d2f3eec65377c986d643c49d5,PennController,57,0,experiment,NULL,PennController,58,_Header_,Start,1770696894882,2595,39,utku,42,39,2595,Chef_dig,B,Chef,dig,dug,Irregular,chef_dig_hole.png,future,The Chef will dig a hole,NULL
1770697287,8763722d2f3eec65377c986d643c49d5,PennController,57,0,experiment,NULL,PennController,58,_Header_,End,1770696894882,2595,39,utku,42,39,2595,Chef_dig,B,Chef,dig,dug,Irregular,chef_dig_hole.png,future,The Chef will dig a hole,NULL
1770697287,8763722d2f3eec65377c986d643c49d5,PennController,57,0,experiment,NULL,Scale,rating,Choice,2,1770696897880,2595,39,utku,42,39,2595,Chef_dig,B,Chef,dig,dug,Irregular,chef_dig_hole.png,future,The Chef will dig a hole,NULL
1770697287,8763722d2f3eec65377c986d643c49d5,PennController,57,0,experiment,NULL,PennController,58,_Trial_,End,1770696898285,2595,39,utku,42,39,2595,Chef_dig,B,Chef,dig,dug,Irregular,chef_dig_hole.png,future,The Chef will dig a hole,NULL
1770697287,8763722d2f3eec65377c986d643c49d5,PennController,47,0,experiment,NULL,PennController,48,_Trial_,Start,1770696898286,3836,40,utku,42,40,3836,Pirate_ride,B,Pirate,ride,rode,Irregular,pirate_ride_bicycle.png,future,The Pirate will ride a bicycle,NULL
1770697287,8763722d2f3eec65377c986d643c49d5,PennController,47,0,experiment,NULL,PennController,48,_Header_,Start,1770696898286,3836,40,utku,42,40,3836,Pirate_ride,B,Pirate,ride,rode,Irregular,pirate_ride_bicycle.png,future,The Pirate will ride a bicycle,NULL
1770697287,8763722d2f3eec65377c986d643c49d5,PennController,47,0,experiment,NULL,PennController,48,_Header_,End,1770696898286,3836,40,utku,42,40,3836,Pirate_ride,B,Pirate,ride,rode,Irregular,pirate_ride_bicycle.png,future,The Pirate will ride a bicycle,NULL
1770697287,8763722d2f3eec65377c986d643c49d5,PennController,47,0,experiment,NULL,Scale,rating,Choice,2,1770696902528,3836,40,utku,42,40,3836,Pirate_ride,B,Pirate,ride,rode,Irregular,pirate_ride_bicycle.png,future,The Pirate will ride a bicycle,NULL
1770697287,8763722d2f3eec65377c986d643c49d5,PennController,47,0,experiment,NULL,PennController,48,_Trial_,End,1770696902931,3836,40,utku,42,40,3836,Pirate_ride,B,Pirate,ride,rode,Irregular,pirate_ride_bicycle.png,future,The Pirate will ride a bicycle,NULL
1770697287,8763722d2f3eec65377c986d643c49d5,PennController,93,0,filler,NULL,PennController,94,_Trial_,Start,1770696902932,4354,41,utku,42,41,4354,ctrl_hadalready_Wizard_cut,filler,Wizard,cut,cut,Irregular,wizard_cut_bread.png,had_already,The Wizard had already cut bread,NULL
1770697287,8763722d2f3eec65377c986d643c49d5,PennController,93,0,filler,NULL,PennController,94,_Header_,Start,1770696902932,4354,41,utku,42,41,4354,ctrl_hadalready_Wizard_cut,filler,Wizard,cut,cut,Irregular,wizard_cut_bread.png,had_already,The Wizard had already cut bread,NULL
1770697287,8763722d2f3eec65377c986d643c49d5,PennController,93,0,filler,NULL,PennController,94,_Header_,End,1770696902932,4354,41,utku,42,41,4354,ctrl_hadalready_Wizard_cut,filler,Wizard,cut,cut,Irregular,wizard_cut_bread.png,had_already,The Wizard had already cut bread,NULL
1770697287,8763722d2f3eec65377c986d643c49d5,PennController,93,0,filler,NULL,Scale,rating,Choice,4,1770696907688,4354,41,utku,42,41,4354,ctrl_hadalready_Wizard_cut,filler,Wizard,cut,cut,Irregular,wizard_cut_bread.png,had_already,The Wizard had already cut bread,NULL
1770697287,8763722d2f3eec65377c986d643c49d5,PennController,93,0,filler,NULL,PennController,94,_Trial_,End,1770696908092,4354,41,utku,42,41,4354,ctrl_hadalready_Wizard_cut,filler,Wizard,cut,cut,Irregular,wizard_cut_bread.png,had_already,The Wizard had already cut bread,NULL
1770697287,8763722d2f3eec65377c986d643c49d5,PennController,56,0,experiment,NULL,PennController,57,_Trial_,Start,1770696908094,2204,42,utku,42,42,2204,Chef_cut,B,Chef,cut,cut,Irregular,chef_cut_bread.png,past,The Chef cut bread,NULL
1770697287,8763722d2f3eec65377c986d643c49d5,PennController,56,0,experiment,NULL,PennController,57,_Header_,Start,1770696908094,2204,42,utku,42,42,2204,Chef_cut,B,Chef,cut,cut,Irregular,chef_cut_bread.png,past,The Chef cut bread,NULL
1770697287,8763722d2f3eec65377c986d643c49d5,PennController,56,0,experiment,NULL,PennController,57,_Header_,End,1770696908094,2204,42,utku,42,42,2204,Chef_cut,B,Chef,cut,cut,Irregular,chef_cut_bread.png,past,The Chef cut bread,NULL
1770697287,8763722d2f3eec65377c986d643c49d5,PennController,56,0,experiment,NULL,Scale,rating,Choice,7,1770696910704,2204,42,utku,42,42,2204,Chef_cut,B,Chef,cut,cut,Irregular,chef_cut_bread.png,past,The Chef cut bread,NULL
1770697287,8763722d2f3eec65377c986d643c49d5,PennController,56,0,experiment,NULL,PennController,57,_Trial_,End,1770696911105,2204,42,utku,42,42,2204,Chef_cut,B,Chef,cut,cut,Irregular,chef_cut_bread.png,past,The Chef cut bread,NULL
1770697287,8763722d2f3eec65377c986d643c49d5,PennController,86,0,filler,NULL,PennController,87,_Trial_,Start,1770696911106,3897,43,utku,42,43,3897,ctrl_prog_Wizard_build,filler,Wizard,build,built,Irregular,wizard_build_tower.png,progressive,The Wizard is building a tower,NULL
1770697287,8763722d2f3eec65377c986d643c49d5,PennController,86,0,filler,NULL,PennController,87,_Header_,Start,1770696911106,3897,43,utku,42,43,3897,ctrl_prog_Wizard_build,filler,Wizard,build,built,Irregular,wizard_build_tower.png,progressive,The Wizard is building a tower,NULL
1770697287,8763722d2f3eec65377c986d643c49d5,PennController,86,0,filler,NULL,PennController,87,_Header_,End,1770696911106,3897,43,utku,42,43,3897,ctrl_prog_Wizard_build,filler,Wizard,build,built,Irregular,wizard_build_tower.png,progressive,The Wizard is building a tower,NULL
1770697287,8763722d2f3eec65377c986d643c49d5,PennController,86,0,filler,NULL,Scale,rating,Choice,7,1770696915405,3897,43,utku,42,43,3897,ctrl_prog_Wizard_build,filler,Wizard,build,built,Irregular,wizard_build_tower.png,progressive,The Wizard is building a tower,NULL
1770697287,8763722d2f3eec65377c986d643c49d5,PennController,86,0,filler,NULL,PennController,87,_Trial_,End,1770696915807,3897,43,utku,42,43,3897,ctrl_prog_Wizard_build,filler,Wizard,build,built,Irregular,wizard_build_tower.png,progressive,The Wizard is building a tower,NULL
1770697287,8763722d2f3eec65377c986d643c49d5,PennController,13,0,experiment,NULL,PennController,14,_Trial_,Start,1770696915809,2564,44,utku,42,44,2564,Wizard_break,B,Wizard,break,broke,Irregular,wizard_break_stick.png,future,The Wizard will break a stick,NULL
1770697287,8763722d2f3eec65377c986d643c49d5,PennController,13,0,experiment,NULL,PennController,14,_Header_,Start,1770696915809,2564,44,utku,42,44,2564,Wizard_break,B,Wizard,break,broke,Irregular,wizard_break_stick.png,future,The Wizard will break a stick,NULL
1770697287,8763722d2f3eec65377c986d643c49d5,PennController,13,0,experiment,NULL,PennController,14,_Header_,End,1770696915809,2564,44,utku,42,44,2564,Wizard_break,B,Wizard,break,broke,Irregular,wizard_break_stick.png,future,The Wizard will break a stick,NULL
1770697287,8763722d2f3eec65377c986d643c49d5,PennController,13,0,experiment,NULL,Scale,rating,Choice,3,1770696918776,2564,44,utku,42,44,2564,Wizard_break,B,Wizard,break,broke,Irregular,wizard_break_stick.png,future,The Wizard will break a stick,NULL
1770697287,8763722d2f3eec65377c986d643c49d5,PennController,13,0,experiment,NULL,PennController,14,_Trial_,End,1770696919178,2564,44,utku,42,44,2564,Wizard_break,B,Wizard,break,broke,Irregular,wizard_break_stick.png,future,The Wizard will break a stick,NULL
# 17. Comments.
1770697287,8763722d2f3eec65377c986d643c49d5,PennController,12,0,break,NULL,PennController,11,_Trial_,Start,1770696919179,2564,44,utku,42,NULL
1770697287,8763722d2f3eec65377c986d643c49d5,PennController,12,0,break,NULL,PennController,11,_Header_,Start,1770696919179,2564,44,utku,42,NULL
1770697287,8763722d2f3eec65377c986d643c49d5,PennController,12,0,break,NULL,PennController,11,_Header_,End,1770696919179,2564,44,utku,42,NULL
1770697287,8763722d2f3eec65377c986d643c49d5,PennController,12,0,break,NULL,PennController,11,_Trial_,End,1770696925423,2564,44,utku,42,NULL
# 17. trialN.
# 18. RT-answer.
# 19. item_id.
# 20. group.
# 21. character.
# 22. verb.
# 23. past_form.
# 24. type.
# 25. picture.
# 26. tense.
# 27. sentence.
# 28. Comments.
1770697287,8763722d2f3eec65377c986d643c49d5,PennController,63,0,experiment,NULL,PennController,64,_Trial_,Start,1770696925424,4763,45,utku,42,45,4763,Chef_paint,B,Chef,paint,painted,Regular,chef_paint_canvas.png,future,The Chef will paint a canvas,NULL
1770697287,8763722d2f3eec65377c986d643c49d5,PennController,63,0,experiment,NULL,PennController,64,_Header_,Start,1770696925424,4763,45,utku,42,45,4763,Chef_paint,B,Chef,paint,painted,Regular,chef_paint_canvas.png,future,The Chef will paint a canvas,NULL
1770697287,8763722d2f3eec65377c986d643c49d5,PennController,63,0,experiment,NULL,PennController,64,_Header_,End,1770696925424,4763,45,utku,42,45,4763,Chef_paint,B,Chef,paint,painted,Regular,chef_paint_canvas.png,future,The Chef will paint a canvas,NULL
1770697287,8763722d2f3eec65377c986d643c49d5,PennController,63,0,experiment,NULL,Scale,rating,Choice,3,1770696930589,4763,45,utku,42,45,4763,Chef_paint,B,Chef,paint,painted,Regular,chef_paint_canvas.png,future,The Chef will paint a canvas,NULL
1770697287,8763722d2f3eec65377c986d643c49d5,PennController,63,0,experiment,NULL,PennController,64,_Trial_,End,1770696930991,4763,45,utku,42,45,4763,Chef_paint,B,Chef,paint,painted,Regular,chef_paint_canvas.png,future,The Chef will paint a canvas,NULL
1770697287,8763722d2f3eec65377c986d643c49d5,PennController,75,0,filler,NULL,PennController,76,_Trial_,Start,1770696930992,5824,46,utku,42,46,5824,ctrl_prog_Wizard_hammer,filler,Wizard,hammer,hammered,Regular,wizard_hammer_nail.png,progressive,The Wizard is hammering a nail,NULL
1770697287,8763722d2f3eec65377c986d643c49d5,PennController,75,0,filler,NULL,PennController,76,_Header_,Start,1770696930992,5824,46,utku,42,46,5824,ctrl_prog_Wizard_hammer,filler,Wizard,hammer,hammered,Regular,wizard_hammer_nail.png,progressive,The Wizard is hammering a nail,NULL
1770697287,8763722d2f3eec65377c986d643c49d5,PennController,75,0,filler,NULL,PennController,76,_Header_,End,1770696930992,5824,46,utku,42,46,5824,ctrl_prog_Wizard_hammer,filler,Wizard,hammer,hammered,Regular,wizard_hammer_nail.png,progressive,The Wizard is hammering a nail,NULL
1770697287,8763722d2f3eec65377c986d643c49d5,PennController,75,0,filler,NULL,Scale,rating,Choice,6,1770696937219,5824,46,utku,42,46,5824,ctrl_prog_Wizard_hammer,filler,Wizard,hammer,hammered,Regular,wizard_hammer_nail.png,progressive,The Wizard is hammering a nail,NULL
1770697287,8763722d2f3eec65377c986d643c49d5,PennController,75,0,filler,NULL,PennController,76,_Trial_,End,1770696937622,5824,46,utku,42,46,5824,ctrl_prog_Wizard_hammer,filler,Wizard,hammer,hammered,Regular,wizard_hammer_nail.png,progressive,The Wizard is hammering a nail,NULL
1770697287,8763722d2f3eec65377c986d643c49d5,PennController,51,0,experiment,NULL,PennController,52,_Trial_,Start,1770696937624,8135,47,utku,42,47,8135,Pirate_throw,B,Pirate,throw,threw,Irregular,pirate_throw_frisbee.png,future,The Pirate will throw a frisbee,NULL
1770697287,8763722d2f3eec65377c986d643c49d5,PennController,51,0,experiment,NULL,PennController,52,_Header_,Start,1770696937624,8135,47,utku,42,47,8135,Pirate_throw,B,Pirate,throw,threw,Irregular,pirate_throw_frisbee.png,future,The Pirate will throw a frisbee,NULL
1770697287,8763722d2f3eec65377c986d643c49d5,PennController,51,0,experiment,NULL,PennController,52,_Header_,End,1770696937624,8135,47,utku,42,47,8135,Pirate_throw,B,Pirate,throw,threw,Irregular,pirate_throw_frisbee.png,future,The Pirate will throw a frisbee,NULL
1770697287,8763722d2f3eec65377c986d643c49d5,PennController,51,0,experiment,NULL,Scale,rating,Choice,3,1770696946164,8135,47,utku,42,47,8135,Pirate_throw,B,Pirate,throw,threw,Irregular,pirate_throw_frisbee.png,future,The Pirate will throw a frisbee,NULL
1770697287,8763722d2f3eec65377c986d643c49d5,PennController,51,0,experiment,NULL,PennController,52,_Trial_,End,1770696946566,8135,47,utku,42,47,8135,Pirate_throw,B,Pirate,throw,threw,Irregular,pirate_throw_frisbee.png,future,The Pirate will throw a frisbee,NULL
1770697287,8763722d2f3eec65377c986d643c49d5,PennController,73,0,filler,NULL,PennController,74,_Trial_,Start,1770696946568,11344,48,utku,42,48,11344,ctrl_prog_Wizard_break,filler,Wizard,break,broke,Irregular,wizard_break_stick.png,progressive,The Wizard is breaking a stick,NULL
1770697287,8763722d2f3eec65377c986d643c49d5,PennController,73,0,filler,NULL,PennController,74,_Header_,Start,1770696946568,11344,48,utku,42,48,11344,ctrl_prog_Wizard_break,filler,Wizard,break,broke,Irregular,wizard_break_stick.png,progressive,The Wizard is breaking a stick,NULL
1770697287,8763722d2f3eec65377c986d643c49d5,PennController,73,0,filler,NULL,PennController,74,_Header_,End,1770696946568,11344,48,utku,42,48,11344,ctrl_prog_Wizard_break,filler,Wizard,break,broke,Irregular,wizard_break_stick.png,progressive,The Wizard is breaking a stick,NULL
1770697287,8763722d2f3eec65377c986d643c49d5,PennController,73,0,filler,NULL,Scale,rating,Choice,4,1770696958317,11344,48,utku,42,48,11344,ctrl_prog_Wizard_break,filler,Wizard,break,broke,Irregular,wizard_break_stick.png,progressive,The Wizard is breaking a stick,NULL
1770697287,8763722d2f3eec65377c986d643c49d5,PennController,73,0,filler,NULL,PennController,74,_Trial_,End,1770696958719,11344,48,utku,42,48,11344,ctrl_prog_Wizard_break,filler,Wizard,break,broke,Irregular,wizard_break_stick.png,progressive,The Wizard is breaking a stick,NULL
1770697287,8763722d2f3eec65377c986d643c49d5,PennController,29,0,experiment,NULL,PennController,30,_Trial_,Start,1770696958720,5513,49,utku,42,49,5513,Wizard_stir,B,Wizard,stir,stirred,Regular,wizard_stir_pot.png,future,The Wizard will stir a pot,NULL
1770697287,8763722d2f3eec65377c986d643c49d5,PennController,29,0,experiment,NULL,PennController,30,_Header_,Start,1770696958720,5513,49,utku,42,49,5513,Wizard_stir,B,Wizard,stir,stirred,Regular,wizard_stir_pot.png,future,The Wizard will stir a pot,NULL
1770697287,8763722d2f3eec65377c986d643c49d5,PennController,29,0,experiment,NULL,PennController,30,_Header_,End,1770696958720,5513,49,utku,42,49,5513,Wizard_stir,B,Wizard,stir,stirred,Regular,wizard_stir_pot.png,future,The Wizard will stir a pot,NULL
1770697287,8763722d2f3eec65377c986d643c49d5,PennController,29,0,experiment,NULL,Scale,rating,Choice,3,1770696964638,5513,49,utku,42,49,5513,Wizard_stir,B,Wizard,stir,stirred,Regular,wizard_stir_pot.png,future,The Wizard will stir a pot,NULL
1770697287,8763722d2f3eec65377c986d643c49d5,PennController,29,0,experiment,NULL,PennController,30,_Trial_,End,1770696965043,5513,49,utku,42,49,5513,Wizard_stir,B,Wizard,stir,stirred,Regular,wizard_stir_pot.png,future,The Wizard will stir a pot,NULL
1770697287,8763722d2f3eec65377c986d643c49d5,PennController,42,0,experiment,NULL,PennController,43,_Trial_,Start,1770696965045,11088,50,utku,42,50,11088,Pirate_light,B,Pirate,light,lit,Irregular,pirate_light_candle.png,past,The Pirate lit a candle,NULL
1770697287,8763722d2f3eec65377c986d643c49d5,PennController,42,0,experiment,NULL,PennController,43,_Header_,Start,1770696965045,11088,50,utku,42,50,11088,Pirate_light,B,Pirate,light,lit,Irregular,pirate_light_candle.png,past,The Pirate lit a candle,NULL
1770697287,8763722d2f3eec65377c986d643c49d5,PennController,42,0,experiment,NULL,PennController,43,_Header_,End,1770696965045,11088,50,utku,42,50,11088,Pirate_light,B,Pirate,light,lit,Irregular,pirate_light_candle.png,past,The Pirate lit a candle,NULL
1770697287,8763722d2f3eec65377c986d643c49d5,PennController,42,0,experiment,NULL,Scale,rating,Choice,7,1770696976537,11088,50,utku,42,50,11088,Pirate_light,B,Pirate,light,lit,Irregular,pirate_light_candle.png,past,The Pirate lit a candle,NULL
1770697287,8763722d2f3eec65377c986d643c49d5,PennController,42,0,experiment,NULL,PennController,43,_Trial_,End,1770696976942,11088,50,utku,42,50,11088,Pirate_light,B,Pirate,light,lit,Irregular,pirate_light_candle.png,past,The Pirate lit a candle,NULL
1770697287,8763722d2f3eec65377c986d643c49d5,PennController,110,0,filler,NULL,PennController,111,_Trial_,Start,1770696976944,9284,51,utku,42,51,9284,ctrl_hadalready_Pirate_eat,filler,Pirate,eat,ate,Irregular,pirate_eat_apple.png,had_already,The Pirate had already eaten an apple,NULL
1770697287,8763722d2f3eec65377c986d643c49d5,PennController,110,0,filler,NULL,PennController,111,_Header_,Start,1770696976944,9284,51,utku,42,51,9284,ctrl_hadalready_Pirate_eat,filler,Pirate,eat,ate,Irregular,pirate_eat_apple.png,had_already,The Pirate had already eaten an apple,NULL
1770697287,8763722d2f3eec65377c986d643c49d5,PennController,110,0,filler,NULL,PennController,111,_Header_,End,1770696976944,9284,51,utku,42,51,9284,ctrl_hadalready_Pirate_eat,filler,Pirate,eat,ate,Irregular,pirate_eat_apple.png,had_already,The Pirate had already eaten an apple,NULL
1770697287,8763722d2f3eec65377c986d643c49d5,PennController,110,0,filler,NULL,Scale,rating,Choice,6,1770696986632,9284,51,utku,42,51,9284,ctrl_hadalready_Pirate_eat,filler,Pirate,eat,ate,Irregular,pirate_eat_apple.png,had_already,The Pirate had already eaten an apple,NULL
1770697287,8763722d2f3eec65377c986d643c49d5,PennController,110,0,filler,NULL,PennController,111,_Trial_,End,1770696987034,9284,51,utku,42,51,9284,ctrl_hadalready_Pirate_eat,filler,Pirate,eat,ate,Irregular,pirate_eat_apple.png,had_already,The Pirate had already eaten an apple,NULL
1770697287,8763722d2f3eec65377c986d643c49d5,PennController,46,0,experiment,NULL,PennController,47,_Trial_,Start,1770696987035,6128,52,utku,42,52,6128,Pirate_push,B,Pirate,push,pushed,Regular,pirate_push_cart.png,past,The Pirate pushed a cart,NULL
1770697287,8763722d2f3eec65377c986d643c49d5,PennController,46,0,experiment,NULL,PennController,47,_Header_,Start,1770696987035,6128,52,utku,42,52,6128,Pirate_push,B,Pirate,push,pushed,Regular,pirate_push_cart.png,past,The Pirate pushed a cart,NULL
1770697287,8763722d2f3eec65377c986d643c49d5,PennController,46,0,experiment,NULL,PennController,47,_Header_,End,1770696987035,6128,52,utku,42,52,6128,Pirate_push,B,Pirate,push,pushed,Regular,pirate_push_cart.png,past,The Pirate pushed a cart,NULL
1770697287,8763722d2f3eec65377c986d643c49d5,PennController,46,0,experiment,NULL,Scale,rating,Choice,6,1770696993564,6128,52,utku,42,52,6128,Pirate_push,B,Pirate,push,pushed,Regular,pirate_push_cart.png,past,The Pirate pushed a cart,NULL
1770697287,8763722d2f3eec65377c986d643c49d5,PennController,46,0,experiment,NULL,PennController,47,_Trial_,End,1770696993969,6128,52,utku,42,52,6128,Pirate_push,B,Pirate,push,pushed,Regular,pirate_push_cart.png,past,The Pirate pushed a cart,NULL
1770697287,8763722d2f3eec65377c986d643c49d5,PennController,97,0,filler,NULL,PennController,98,_Trial_,Start,1770696993970,2755,53,utku,42,53,2755,ctrl_hadalready_Pirate_peel,filler,Pirate,peel,peeled,Regular,pirate_peel_banana.png,had_already,The Pirate had already peeled a banana,NULL
1770697287,8763722d2f3eec65377c986d643c49d5,PennController,97,0,filler,NULL,PennController,98,_Header_,Start,1770696993970,2755,53,utku,42,53,2755,ctrl_hadalready_Pirate_peel,filler,Pirate,peel,peeled,Regular,pirate_peel_banana.png,had_already,The Pirate had already peeled a banana,NULL
1770697287,8763722d2f3eec65377c986d643c49d5,PennController,97,0,filler,NULL,PennController,98,_Header_,End,1770696993970,2755,53,utku,42,53,2755,ctrl_hadalready_Pirate_peel,filler,Pirate,peel,peeled,Regular,pirate_peel_banana.png,had_already,The Pirate had already peeled a banana,NULL
1770697287,8763722d2f3eec65377c986d643c49d5,PennController,97,0,filler,NULL,Scale,rating,Choice,6,1770696997127,2755,53,utku,42,53,2755,ctrl_hadalready_Pirate_peel,filler,Pirate,peel,peeled,Regular,pirate_peel_banana.png,had_already,The Pirate had already peeled a banana,NULL
1770697287,8763722d2f3eec65377c986d643c49d5,PennController,97,0,filler,NULL,PennController,98,_Trial_,End,1770696997529,2755,53,utku,42,53,2755,ctrl_hadalready_Pirate_peel,filler,Pirate,peel,peeled,Regular,pirate_peel_banana.png,had_already,The Pirate had already peeled a banana,NULL
1770697287,8763722d2f3eec65377c986d643c49d5,PennController,17,0,experiment,NULL,PennController,18,_Trial_,Start,1770696997530,8493,54,utku,42,54,8493,Wizard_dig,B,Wizard,dig,dug,Irregular,wizard_dig_hole.png,future,The Wizard will dig a hole,NULL
1770697287,8763722d2f3eec65377c986d643c49d5,PennController,17,0,experiment,NULL,PennController,18,_Header_,Start,1770696997530,8493,54,utku,42,54,8493,Wizard_dig,B,Wizard,dig,dug,Irregular,wizard_dig_hole.png,future,The Wizard will dig a hole,NULL
1770697287,8763722d2f3eec65377c986d643c49d5,PennController,17,0,experiment,NULL,PennController,18,_Header_,End,1770696997530,8493,54,utku,42,54,8493,Wizard_dig,B,Wizard,dig,dug,Irregular,wizard_dig_hole.png,future,The Wizard will dig a hole,NULL
1770697287,8763722d2f3eec65377c986d643c49d5,PennController,17,0,experiment,NULL,Scale,rating,Choice,5,1770697006428,8493,54,utku,42,54,8493,Wizard_dig,B,Wizard,dig,dug,Irregular,wizard_dig_hole.png,future,The Wizard will dig a hole,NULL
1770697287,8763722d2f3eec65377c986d643c49d5,PennController,17,0,experiment,NULL,PennController,18,_Trial_,End,1770697006830,8493,54,utku,42,54,8493,Wizard_dig,B,Wizard,dig,dug,Irregular,wizard_dig_hole.png,future,The Wizard will dig a hole,NULL
1770697287,8763722d2f3eec65377c986d643c49d5,PennController,60,0,experiment,NULL,PennController,61,_Trial_,Start,1770697006831,2983,55,utku,42,55,2983,Chef_hammer,B,Chef,hammer,hammered,Regular,chef_hammer_nail.png,past,The Chef hammered a nail,NULL
1770697287,8763722d2f3eec65377c986d643c49d5,PennController,60,0,experiment,NULL,PennController,61,_Header_,Start,1770697006831,2983,55,utku,42,55,2983,Chef_hammer,B,Chef,hammer,hammered,Regular,chef_hammer_nail.png,past,The Chef hammered a nail,NULL
1770697287,8763722d2f3eec65377c986d643c49d5,PennController,60,0,experiment,NULL,PennController,61,_Header_,End,1770697006831,2983,55,utku,42,55,2983,Chef_hammer,B,Chef,hammer,hammered,Regular,chef_hammer_nail.png,past,The Chef hammered a nail,NULL
1770697287,8763722d2f3eec65377c986d643c49d5,PennController,60,0,experiment,NULL,Scale,rating,Choice,6,1770697010216,2983,55,utku,42,55,2983,Chef_hammer,B,Chef,hammer,hammered,Regular,chef_hammer_nail.png,past,The Chef hammered a nail,NULL
1770697287,8763722d2f3eec65377c986d643c49d5,PennController,60,0,experiment,NULL,PennController,61,_Trial_,End,1770697010620,2983,55,utku,42,55,2983,Chef_hammer,B,Chef,hammer,hammered,Regular,chef_hammer_nail.png,past,The Chef hammered a nail,NULL
1770697287,8763722d2f3eec65377c986d643c49d5,PennController,106,0,filler,NULL,PennController,107,_Trial_,Start,1770697010621,5169,56,utku,42,56,5169,ctrl_hadalready_Wizard_drink,filler,Wizard,drink,drank,Irregular,wizard_drink_coffee.png,had_already,The Wizard had already drunk coffee,NULL
1770697287,8763722d2f3eec65377c986d643c49d5,PennController,106,0,filler,NULL,PennController,107,_Header_,Start,1770697010621,5169,56,utku,42,56,5169,ctrl_hadalready_Wizard_drink,filler,Wizard,drink,drank,Irregular,wizard_drink_coffee.png,had_already,The Wizard had already drunk coffee,NULL
1770697287,8763722d2f3eec65377c986d643c49d5,PennController,106,0,filler,NULL,PennController,107,_Header_,End,1770697010621,5169,56,utku,42,56,5169,ctrl_hadalready_Wizard_drink,filler,Wizard,drink,drank,Irregular,wizard_drink_coffee.png,had_already,The Wizard had already drunk coffee,NULL
1770697287,8763722d2f3eec65377c986d643c49d5,PennController,106,0,filler,NULL,Scale,rating,Choice,4,1770697016194,5169,56,utku,42,56,5169,ctrl_hadalready_Wizard_drink,filler,Wizard,drink,drank,Irregular,wizard_drink_coffee.png,had_already,The Wizard had already drunk coffee,NULL
1770697287,8763722d2f3eec65377c986d643c49d5,PennController,106,0,filler,NULL,PennController,107,_Trial_,End,1770697016597,5169,56,utku,42,56,5169,ctrl_hadalready_Wizard_drink,filler,Wizard,drink,drank,Irregular,wizard_drink_coffee.png,had_already,The Wizard had already drunk coffee,NULL
1770697287,8763722d2f3eec65377c986d643c49d5,PennController,27,0,experiment,NULL,PennController,28,_Trial_,Start,1770697016599,1374,57,utku,42,57,1374,Wizard_ride,B,Wizard,ride,rode,Irregular,wizard_ride_bicycle.png,future,The Wizard will ride a bicycle,NULL
1770697287,8763722d2f3eec65377c986d643c49d5,PennController,27,0,experiment,NULL,PennController,28,_Header_,Start,1770697016599,1374,57,utku,42,57,1374,Wizard_ride,B,Wizard,ride,rode,Irregular,wizard_ride_bicycle.png,future,The Wizard will ride a bicycle,NULL
1770697287,8763722d2f3eec65377c986d643c49d5,PennController,27,0,experiment,NULL,PennController,28,_Header_,End,1770697016599,1374,57,utku,42,57,1374,Wizard_ride,B,Wizard,ride,rode,Irregular,wizard_ride_bicycle.png,future,The Wizard will ride a bicycle,NULL
1770697287,8763722d2f3eec65377c986d643c49d5,PennController,27,0,experiment,NULL,Scale,rating,Choice,4,1770697018377,1374,57,utku,42,57,1374,Wizard_ride,B,Wizard,ride,rode,Irregular,wizard_ride_bicycle.png,future,The Wizard will ride a bicycle,NULL
1770697287,8763722d2f3eec65377c986d643c49d5,PennController,27,0,experiment,NULL,PennController,28,_Trial_,End,1770697018779,1374,57,utku,42,57,1374,Wizard_ride,B,Wizard,ride,rode,Irregular,wizard_ride_bicycle.png,future,The Wizard will ride a bicycle,NULL
1770697287,8763722d2f3eec65377c986d643c49d5,PennController,84,0,filler,NULL,PennController,85,_Trial_,Start,1770697018780,3164,58,utku,42,58,3164,ctrl_prog_Pirate_climb,filler,Pirate,climb,climbed,Regular,pirate_climb_ladder.png,progressive,The Pirate is climbing a ladder,NULL
1770697287,8763722d2f3eec65377c986d643c49d5,PennController,84,0,filler,NULL,PennController,85,_Header_,Start,1770697018780,3164,58,utku,42,58,3164,ctrl_prog_Pirate_climb,filler,Pirate,climb,climbed,Regular,pirate_climb_ladder.png,progressive,The Pirate is climbing a ladder,NULL
1770697287,8763722d2f3eec65377c986d643c49d5,PennController,84,0,filler,NULL,PennController,85,_Header_,End,1770697018781,3164,58,utku,42,58,3164,ctrl_prog_Pirate_climb,filler,Pirate,climb,climbed,Regular,pirate_climb_ladder.png,progressive,The Pirate is climbing a ladder,NULL
1770697287,8763722d2f3eec65377c986d643c49d5,PennController,84,0,filler,NULL,Scale,rating,Choice,7,1770697022346,3164,58,utku,42,58,3164,ctrl_prog_Pirate_climb,filler,Pirate,climb,climbed,Regular,pirate_climb_ladder.png,progressive,The Pirate is climbing a ladder,NULL
1770697287,8763722d2f3eec65377c986d643c49d5,PennController,84,0,filler,NULL,PennController,85,_Trial_,End,1770697022747,3164,58,utku,42,58,3164,ctrl_prog_Pirate_climb,filler,Pirate,climb,climbed,Regular,pirate_climb_ladder.png,progressive,The Pirate is climbing a ladder,NULL
1770697287,8763722d2f3eec65377c986d643c49d5,PennController,40,0,experiment,NULL,PennController,41,_Trial_,Start,1770697022749,5289,59,utku,42,59,5289,Pirate_hammer,B,Pirate,hammer,hammered,Regular,pirate_hammer_nail.png,past,The Pirate hammered a nail,NULL
1770697287,8763722d2f3eec65377c986d643c49d5,PennController,40,0,experiment,NULL,PennController,41,_Header_,Start,1770697022749,5289,59,utku,42,59,5289,Pirate_hammer,B,Pirate,hammer,hammered,Regular,pirate_hammer_nail.png,past,The Pirate hammered a nail,NULL
1770697287,8763722d2f3eec65377c986d643c49d5,PennController,40,0,experiment,NULL,PennController,41,_Header_,End,1770697022750,5289,59,utku,42,59,5289,Pirate_hammer,B,Pirate,hammer,hammered,Regular,pirate_hammer_nail.png,past,The Pirate hammered a nail,NULL
1770697287,8763722d2f3eec65377c986d643c49d5,PennController,40,0,experiment,NULL,Scale,rating,Choice,6,1770697028445,5289,59,utku,42,59,5289,Pirate_hammer,B,Pirate,hammer,hammered,Regular,pirate_hammer_nail.png,past,The Pirate hammered a nail,NULL
1770697287,8763722d2f3eec65377c986d643c49d5,PennController,40,0,experiment,NULL,PennController,41,_Trial_,End,1770697028845,5289,59,utku,42,59,5289,Pirate_hammer,B,Pirate,hammer,hammered,Regular,pirate_hammer_nail.png,past,The Pirate hammered a nail,NULL
1770697287,8763722d2f3eec65377c986d643c49d5,PennController,83,0,filler,NULL,PennController,84,_Trial_,Start,1770697028847,2823,60,utku,42,60,2823,ctrl_prog_Chef_break,filler,Chef,break,broke,Irregular,chef_break_stick.png,progressive,The Chef is breaking a stick,NULL
1770697287,8763722d2f3eec65377c986d643c49d5,PennController,83,0,filler,NULL,PennController,84,_Header_,Start,1770697028847,2823,60,utku,42,60,2823,ctrl_prog_Chef_break,filler,Chef,break,broke,Irregular,chef_break_stick.png,progressive,The Chef is breaking a stick,NULL
1770697287,8763722d2f3eec65377c986d643c49d5,PennController,83,0,filler,NULL,PennController,84,_Header_,End,1770697028847,2823,60,utku,42,60,2823,ctrl_prog_Chef_break,filler,Chef,break,broke,Irregular,chef_break_stick.png,progressive,The Chef is breaking a stick,NULL
1770697287,8763722d2f3eec65377c986d643c49d5,PennController,83,0,filler,NULL,Scale,rating,Choice,7,1770697032074,2823,60,utku,42,60,2823,ctrl_prog_Chef_break,filler,Chef,break,broke,Irregular,chef_break_stick.png,progressive,The Chef is breaking a stick,NULL
1770697287,8763722d2f3eec65377c986d643c49d5,PennController,83,0,filler,NULL,PennController,84,_Trial_,End,1770697032476,2823,60,utku,42,60,2823,ctrl_prog_Chef_break,filler,Chef,break,broke,Irregular,chef_break_stick.png,progressive,The Chef is breaking a stick,NULL
1770697287,8763722d2f3eec65377c986d643c49d5,PennController,45,0,experiment,NULL,PennController,46,_Trial_,Start,1770697032477,6296,61,utku,42,61,6296,Pirate_play,B,Pirate,play,played,Regular,pirate_play_guitar.png,future,The Pirate will play the guitar,NULL
1770697287,8763722d2f3eec65377c986d643c49d5,PennController,45,0,experiment,NULL,PennController,46,_Header_,Start,1770697032477,6296,61,utku,42,61,6296,Pirate_play,B,Pirate,play,played,Regular,pirate_play_guitar.png,future,The Pirate will play the guitar,NULL
1770697287,8763722d2f3eec65377c986d643c49d5,PennController,45,0,experiment,NULL,PennController,46,_Header_,End,1770697032477,6296,61,utku,42,61,6296,Pirate_play,B,Pirate,play,played,Regular,pirate_play_guitar.png,future,The Pirate will play the guitar,NULL
1770697287,8763722d2f3eec65377c986d643c49d5,PennController,45,0,experiment,NULL,Scale,rating,Choice,4,1770697039178,6296,61,utku,42,61,6296,Pirate_play,B,Pirate,play,played,Regular,pirate_play_guitar.png,future,The Pirate will play the guitar,NULL
1770697287,8763722d2f3eec65377c986d643c49d5,PennController,45,0,experiment,NULL,PennController,46,_Trial_,End,1770697039582,6296,61,utku,42,61,6296,Pirate_play,B,Pirate,play,played,Regular,pirate_play_guitar.png,future,The Pirate will play the guitar,NULL
1770697287,8763722d2f3eec65377c986d643c49d5,PennController,50,0,experiment,NULL,PennController,51,_Trial_,Start,1770697039583,1912,62,utku,42,62,1912,Pirate_sweep,B,Pirate,sweep,swept,Irregular,pirate_sweep_floor.png,past,The Pirate swept the floor,NULL
1770697287,8763722d2f3eec65377c986d643c49d5,PennController,50,0,experiment,NULL,PennController,51,_Header_,Start,1770697039583,1912,62,utku,42,62,1912,Pirate_sweep,B,Pirate,sweep,swept,Irregular,pirate_sweep_floor.png,past,The Pirate swept the floor,NULL
1770697287,8763722d2f3eec65377c986d643c49d5,PennController,50,0,experiment,NULL,PennController,51,_Header_,End,1770697039583,1912,62,utku,42,62,1912,Pirate_sweep,B,Pirate,sweep,swept,Irregular,pirate_sweep_floor.png,past,The Pirate swept the floor,NULL
1770697287,8763722d2f3eec65377c986d643c49d5,PennController,50,0,experiment,NULL,Scale,rating,Choice,4,1770697041900,1912,62,utku,42,62,1912,Pirate_sweep,B,Pirate,sweep,swept,Irregular,pirate_sweep_floor.png,past,The Pirate swept the floor,NULL
1770697287,8763722d2f3eec65377c986d643c49d5,PennController,50,0,experiment,NULL,PennController,51,_Trial_,End,1770697042302,1912,62,utku,42,62,1912,Pirate_sweep,B,Pirate,sweep,swept,Irregular,pirate_sweep_floor.png,past,The Pirate swept the floor,NULL
1770697287,8763722d2f3eec65377c986d643c49d5,PennController,96,0,filler,NULL,PennController,97,_Trial_,Start,1770697042304,4800,63,utku,42,63,4800,ctrl_hadalready_Pirate_drink,filler,Pirate,drink,drank,Irregular,pirate_drink_coffee.png,had_already,The Pirate had already drunk coffee,NULL
1770697287,8763722d2f3eec65377c986d643c49d5,PennController,96,0,filler,NULL,PennController,97,_Header_,Start,1770697042304,4800,63,utku,42,63,4800,ctrl_hadalready_Pirate_drink,filler,Pirate,drink,drank,Irregular,pirate_drink_coffee.png,had_already,The Pirate had already drunk coffee,NULL
1770697287,8763722d2f3eec65377c986d643c49d5,PennController,96,0,filler,NULL,PennController,97,_Header_,End,1770697042304,4800,63,utku,42,63,4800,ctrl_hadalready_Pirate_drink,filler,Pirate,drink,drank,Irregular,pirate_drink_coffee.png,had_already,The Pirate had already drunk coffee,NULL
1770697287,8763722d2f3eec65377c986d643c49d5,PennController,96,0,filler,NULL,Scale,rating,Choice,3,1770697047506,4800,63,utku,42,63,4800,ctrl_hadalready_Pirate_drink,filler,Pirate,drink,drank,Irregular,pirate_drink_coffee.png,had_already,The Pirate had already drunk coffee,NULL
1770697287,8763722d2f3eec65377c986d643c49d5,PennController,96,0,filler,NULL,PennController,97,_Trial_,End,1770697047910,4800,63,utku,42,63,4800,ctrl_hadalready_Pirate_drink,filler,Pirate,drink,drank,Irregular,pirate_drink_coffee.png,had_already,The Pirate had already drunk coffee,NULL
1770697287,8763722d2f3eec65377c986d643c49d5,PennController,16,0,experiment,NULL,PennController,17,_Trial_,Start,1770697047912,4145,64,utku,42,64,4145,Wizard_cut,B,Wizard,cut,cut,Irregular,wizard_cut_bread.png,past,The Wizard cut bread,NULL
1770697287,8763722d2f3eec65377c986d643c49d5,PennController,16,0,experiment,NULL,PennController,17,_Header_,Start,1770697047912,4145,64,utku,42,64,4145,Wizard_cut,B,Wizard,cut,cut,Irregular,wizard_cut_bread.png,past,The Wizard cut bread,NULL
1770697287,8763722d2f3eec65377c986d643c49d5,PennController,16,0,experiment,NULL,PennController,17,_Header_,End,1770697047912,4145,64,utku,42,64,4145,Wizard_cut,B,Wizard,cut,cut,Irregular,wizard_cut_bread.png,past,The Wizard cut bread,NULL
1770697287,8763722d2f3eec65377c986d643c49d5,PennController,16,0,experiment,NULL,Scale,rating,Choice,6,1770697052460,4145,64,utku,42,64,4145,Wizard_cut,B,Wizard,cut,cut,Irregular,wizard_cut_bread.png,past,The Wizard cut bread,NULL
1770697287,8763722d2f3eec65377c986d643c49d5,PennController,16,0,experiment,NULL,PennController,17,_Trial_,End,1770697052862,4145,64,utku,42,64,4145,Wizard_cut,B,Wizard,cut,cut,Irregular,wizard_cut_bread.png,past,The Wizard cut bread,NULL
# 17. Comments.
1770697287,8763722d2f3eec65377c986d643c49d5,PennController,12,0,break,NULL,PennController,11,_Trial_,Start,1770697052864,4145,64,utku,42,NULL
1770697287,8763722d2f3eec65377c986d643c49d5,PennController,12,0,break,NULL,PennController,11,_Header_,Start,1770697052864,4145,64,utku,42,NULL
1770697287,8763722d2f3eec65377c986d643c49d5,PennController,12,0,break,NULL,PennController,11,_Header_,End,1770697052864,4145,64,utku,42,NULL
1770697287,8763722d2f3eec65377c986d643c49d5,PennController,12,0,break,NULL,PennController,11,_Trial_,End,1770697101173,4145,64,utku,42,NULL
# 17. trialN.
# 18. RT-answer.
# 19. item_id.
# 20. group.
# 21. character.
# 22. verb.
# 23. past_form.
# 24. type.
# 25. picture.
# 26. tense.
# 27. sentence.
# 28. Comments.
1770697287,8763722d2f3eec65377c986d643c49d5,PennController,94,0,filler,NULL,PennController,95,_Trial_,Start,1770697101175,2397,65,utku,42,65,2397,ctrl_hadalready_Wizard_light,filler,Wizard,light,lit,Irregular,wizard_light_candle.png,had_already,The Wizard had already lit a candle,NULL
1770697287,8763722d2f3eec65377c986d643c49d5,PennController,94,0,filler,NULL,PennController,95,_Header_,Start,1770697101175,2397,65,utku,42,65,2397,ctrl_hadalready_Wizard_light,filler,Wizard,light,lit,Irregular,wizard_light_candle.png,had_already,The Wizard had already lit a candle,NULL
1770697287,8763722d2f3eec65377c986d643c49d5,PennController,94,0,filler,NULL,PennController,95,_Header_,End,1770697101175,2397,65,utku,42,65,2397,ctrl_hadalready_Wizard_light,filler,Wizard,light,lit,Irregular,wizard_light_candle.png,had_already,The Wizard had already lit a candle,NULL
1770697287,8763722d2f3eec65377c986d643c49d5,PennController,94,0,filler,NULL,Scale,rating,Choice,7,1770697103974,2397,65,utku,42,65,2397,ctrl_hadalready_Wizard_light,filler,Wizard,light,lit,Irregular,wizard_light_candle.png,had_already,The Wizard had already lit a candle,NULL
1770697287,8763722d2f3eec65377c986d643c49d5,PennController,94,0,filler,NULL,PennController,95,_Trial_,End,1770697104378,2397,65,utku,42,65,2397,ctrl_hadalready_Wizard_light,filler,Wizard,light,lit,Irregular,wizard_light_candle.png,had_already,The Wizard had already lit a candle,NULL
1770697287,8763722d2f3eec65377c986d643c49d5,PennController,64,0,experiment,NULL,PennController,65,_Trial_,Start,1770697104380,2719,66,utku,42,66,2719,Chef_peel,B,Chef,peel,peeled,Regular,chef_peel_banana.png,past,The Chef peeled a banana,NULL
1770697287,8763722d2f3eec65377c986d643c49d5,PennController,64,0,experiment,NULL,PennController,65,_Header_,Start,1770697104380,2719,66,utku,42,66,2719,Chef_peel,B,Chef,peel,peeled,Regular,chef_peel_banana.png,past,The Chef peeled a banana,NULL
1770697287,8763722d2f3eec65377c986d643c49d5,PennController,64,0,experiment,NULL,PennController,65,_Header_,End,1770697104380,2719,66,utku,42,66,2719,Chef_peel,B,Chef,peel,peeled,Regular,chef_peel_banana.png,past,The Chef peeled a banana,NULL
1770697287,8763722d2f3eec65377c986d643c49d5,PennController,64,0,experiment,NULL,Scale,rating,Choice,7,1770697107502,2719,66,utku,42,66,2719,Chef_peel,B,Chef,peel,peeled,Regular,chef_peel_banana.png,past,The Chef peeled a banana,NULL
1770697287,8763722d2f3eec65377c986d643c49d5,PennController,64,0,experiment,NULL,PennController,65,_Trial_,End,1770697107904,2719,66,utku,42,66,2719,Chef_peel,B,Chef,peel,peeled,Regular,chef_peel_banana.png,past,The Chef peeled a banana,NULL
1770697287,8763722d2f3eec65377c986d643c49d5,PennController,25,0,experiment,NULL,PennController,26,_Trial_,Start,1770697107906,15000,67,utku,42,67,15000,Wizard_play,B,Wizard,play,played,Regular,wizard_play_guitar.png,future,The Wizard will play the guitar,NULL
1770697287,8763722d2f3eec65377c986d643c49d5,PennController,25,0,experiment,NULL,PennController,26,_Header_,Start,1770697107906,15000,67,utku,42,67,15000,Wizard_play,B,Wizard,play,played,Regular,wizard_play_guitar.png,future,The Wizard will play the guitar,NULL
1770697287,8763722d2f3eec65377c986d643c49d5,PennController,25,0,experiment,NULL,PennController,26,_Header_,End,1770697107906,15000,67,utku,42,67,15000,Wizard_play,B,Wizard,play,played,Regular,wizard_play_guitar.png,future,The Wizard will play the guitar,NULL
1770697287,8763722d2f3eec65377c986d643c49d5,PennController,25,0,experiment,NULL,PennController,26,_Trial_,End,1770697123716,15000,67,utku,42,67,15000,Wizard_play,B,Wizard,play,played,Regular,wizard_play_guitar.png,future,The Wizard will play the guitar,NULL
1770697287,8763722d2f3eec65377c986d643c49d5,PennController,82,0,filler,NULL,PennController,83,_Trial_,Start,1770697123718,5603,68,utku,42,68,5603,ctrl_prog_Chef_sweep,filler,Chef,sweep,swept,Irregular,chef_sweep_floor.png,progressive,The Chef is sweeping the floor,NULL
1770697287,8763722d2f3eec65377c986d643c49d5,PennController,82,0,filler,NULL,PennController,83,_Header_,Start,1770697123718,5603,68,utku,42,68,5603,ctrl_prog_Chef_sweep,filler,Chef,sweep,swept,Irregular,chef_sweep_floor.png,progressive,The Chef is sweeping the floor,NULL
1770697287,8763722d2f3eec65377c986d643c49d5,PennController,82,0,filler,NULL,PennController,83,_Header_,End,1770697123718,5603,68,utku,42,68,5603,ctrl_prog_Chef_sweep,filler,Chef,sweep,swept,Irregular,chef_sweep_floor.png,progressive,The Chef is sweeping the floor,NULL
1770697287,8763722d2f3eec65377c986d643c49d5,PennController,82,0,filler,NULL,Scale,rating,Choice,7,1770697129725,5603,68,utku,42,68,5603,ctrl_prog_Chef_sweep,filler,Chef,sweep,swept,Irregular,chef_sweep_floor.png,progressive,The Chef is sweeping the floor,NULL
1770697287,8763722d2f3eec65377c986d643c49d5,PennController,82,0,filler,NULL,PennController,83,_Trial_,End,1770697130127,5603,68,utku,42,68,5603,ctrl_prog_Chef_sweep,filler,Chef,sweep,swept,Irregular,chef_sweep_floor.png,progressive,The Chef is sweeping the floor,NULL
1770697287,8763722d2f3eec65377c986d643c49d5,PennController,59,0,experiment,NULL,PennController,60,_Trial_,Start,1770697130129,3056,69,utku,42,69,3056,Chef_eat,B,Chef,eat,ate,Irregular,chef_eat_apple.png,future,The Chef will eat an apple,NULL
1770697287,8763722d2f3eec65377c986d643c49d5,PennController,59,0,experiment,NULL,PennController,60,_Header_,Start,1770697130129,3056,69,utku,42,69,3056,Chef_eat,B,Chef,eat,ate,Irregular,chef_eat_apple.png,future,The Chef will eat an apple,NULL
1770697287,8763722d2f3eec65377c986d643c49d5,PennController,59,0,experiment,NULL,PennController,60,_Header_,End,1770697130129,3056,69,utku,42,69,3056,Chef_eat,B,Chef,eat,ate,Irregular,chef_eat_apple.png,future,The Chef will eat an apple,NULL
1770697287,8763722d2f3eec65377c986d643c49d5,PennController,59,0,experiment,NULL,Scale,rating,Choice,7,1770697133589,3056,69,utku,42,69,3056,Chef_eat,B,Chef,eat,ate,Irregular,chef_eat_apple.png,future,The Chef will eat an apple,NULL
1770697287,8763722d2f3eec65377c986d643c49d5,PennController,59,0,experiment,NULL,PennController,60,_Trial_,End,1770697133991,3056,69,utku,42,69,3056,Chef_eat,B,Chef,eat,ate,Irregular,chef_eat_apple.png,future,The Chef will eat an apple,NULL
1770697287,8763722d2f3eec65377c986d643c49d5,PennController,98,0,filler,NULL,PennController,99,_Trial_,Start,1770697133993,4435,70,utku,42,70,4435,ctrl_hadalready_Pirate_stir,filler,Pirate,stir,stirred,Regular,pirate_stir_pot.png,had_already,The Pirate had already stirred a pot,NULL
1770697287,8763722d2f3eec65377c986d643c49d5,PennController,98,0,filler,NULL,PennController,99,_Header_,Start,1770697133993,4435,70,utku,42,70,4435,ctrl_hadalready_Pirate_stir,filler,Pirate,stir,stirred,Regular,pirate_stir_pot.png,had_already,The Pirate had already stirred a pot,NULL
1770697287,8763722d2f3eec65377c986d643c49d5,PennController,98,0,filler,NULL,PennController,99,_Header_,End,1770697133993,4435,70,utku,42,70,4435,ctrl_hadalready_Pirate_stir,filler,Pirate,stir,stirred,Regular,pirate_stir_pot.png,had_already,The Pirate had already stirred a pot,NULL
1770697287,8763722d2f3eec65377c986d643c49d5,PennController,98,0,filler,NULL,Scale,rating,Choice,5,1770697138831,4435,70,utku,42,70,4435,ctrl_hadalready_Pirate_stir,filler,Pirate,stir,stirred,Regular,pirate_stir_pot.png,had_already,The Pirate had already stirred a pot,NULL
1770697287,8763722d2f3eec65377c986d643c49d5,PennController,98,0,filler,NULL,PennController,99,_Trial_,End,1770697139232,4435,70,utku,42,70,4435,ctrl_hadalready_Pirate_stir,filler,Pirate,stir,stirred,Regular,pirate_stir_pot.png,had_already,The Pirate had already stirred a pot,NULL
1770697287,8763722d2f3eec65377c986d643c49d5,PennController,30,0,experiment,NULL,PennController,31,_Trial_,Start,1770697139234,2472,71,utku,42,71,2472,Wizard_sweep,B,Wizard,sweep,swept,Irregular,wizard_sweep_floor.png,past,The Wizard swept the floor,NULL
1770697287,8763722d2f3eec65377c986d643c49d5,PennController,30,0,experiment,NULL,PennController,31,_Header_,Start,1770697139234,2472,71,utku,42,71,2472,Wizard_sweep,B,Wizard,sweep,swept,Irregular,wizard_sweep_floor.png,past,The Wizard swept the floor,NULL
1770697287,8763722d2f3eec65377c986d643c49d5,PennController,30,0,experiment,NULL,PennController,31,_Header_,End,1770697139234,2472,71,utku,42,71,2472,Wizard_sweep,B,Wizard,sweep,swept,Irregular,wizard_sweep_floor.png,past,The Wizard swept the floor,NULL
1770697287,8763722d2f3eec65377c986d643c49d5,PennController,30,0,experiment,NULL,Scale,rating,Choice,6,1770697142110,2472,71,utku,42,71,2472,Wizard_sweep,B,Wizard,sweep,swept,Irregular,wizard_sweep_floor.png,past,The Wizard swept the floor,NULL
1770697287,8763722d2f3eec65377c986d643c49d5,PennController,30,0,experiment,NULL,PennController,31,_Trial_,End,1770697142514,2472,71,utku,42,71,2472,Wizard_sweep,B,Wizard,sweep,swept,Irregular,wizard_sweep_floor.png,past,The Wizard swept the floor,NULL
1770697287,8763722d2f3eec65377c986d643c49d5,PennController,68,0,experiment,NULL,PennController,69,_Trial_,Start,1770697142515,1942,72,utku,42,72,1942,Chef_smell,B,Chef,smell,smelled,Regular,chef_smell_flower.png,past,The Chef smelled a flower,NULL
1770697287,8763722d2f3eec65377c986d643c49d5,PennController,68,0,experiment,NULL,PennController,69,_Header_,Start,1770697142515,1942,72,utku,42,72,1942,Chef_smell,B,Chef,smell,smelled,Regular,chef_smell_flower.png,past,The Chef smelled a flower,NULL
1770697287,8763722d2f3eec65377c986d643c49d5,PennController,68,0,experiment,NULL,PennController,69,_Header_,End,1770697142515,1942,72,utku,42,72,1942,Chef_smell,B,Chef,smell,smelled,Regular,chef_smell_flower.png,past,The Chef smelled a flower,NULL
1770697287,8763722d2f3eec65377c986d643c49d5,PennController,68,0,experiment,NULL,Scale,rating,Choice,7,1770697144863,1942,72,utku,42,72,1942,Chef_smell,B,Chef,smell,smelled,Regular,chef_smell_flower.png,past,The Chef smelled a flower,NULL
1770697287,8763722d2f3eec65377c986d643c49d5,PennController,68,0,experiment,NULL,PennController,69,_Trial_,End,1770697145266,1942,72,utku,42,72,1942,Chef_smell,B,Chef,smell,smelled,Regular,chef_smell_flower.png,past,The Chef smelled a flower,NULL
1770697287,8763722d2f3eec65377c986d643c49d5,PennController,107,0,filler,NULL,PennController,108,_Trial_,Start,1770697145268,4213,73,utku,42,73,4213,ctrl_hadalready_Chef_peel,filler,Chef,peel,peeled,Regular,chef_peel_banana.png,had_already,The Chef had already peeled a banana,NULL
1770697287,8763722d2f3eec65377c986d643c49d5,PennController,107,0,filler,NULL,PennController,108,_Header_,Start,1770697145268,4213,73,utku,42,73,4213,ctrl_hadalready_Chef_peel,filler,Chef,peel,peeled,Regular,chef_peel_banana.png,had_already,The Chef had already peeled a banana,NULL
1770697287,8763722d2f3eec65377c986d643c49d5,PennController,107,0,filler,NULL,PennController,108,_Header_,End,1770697145268,4213,73,utku,42,73,4213,ctrl_hadalready_Chef_peel,filler,Chef,peel,peeled,Regular,chef_peel_banana.png,had_already,The Chef had already peeled a banana,NULL
1770697287,8763722d2f3eec65377c986d643c49d5,PennController,107,0,filler,NULL,Scale,rating,Choice,6,1770697149886,4213,73,utku,42,73,4213,ctrl_hadalready_Chef_peel,filler,Chef,peel,peeled,Regular,chef_peel_banana.png,had_already,The Chef had already peeled a banana,NULL
