# Results on Mon, 09 Mar 2026 23:58:21 GMT
# USER AGENT: Mozilla/5.0 (Windows NT 10.0; Win64; x64) AppleWebKit/537.36 (KHTML, like Gecko) Chrome/145.0.0.0 Safari/537.36
# Design number was non-random = 6
#
# Columns below this comment are as follows:
# 1. Results reception time.
# 2. MD5 hash of participant's IP address.
# 3. Controller name.
# 4. Order number of item.
# 5. Inner element number.
# 6. Label.
# 7. Latin Square Group.
# 8. PennElementType.
# 9. PennElementName.
# 10. Parameter.
# 11. Value.
# 12. EventTime.
# 13. exp_start_timestamp.
# 14. source.
# 15. SONA_ID_URL.
# 16. Comments.
1773100701,d3dd47b61314fd033563b6592ced659f,PennController,153,0,intro,NULL,PennController,151,_Trial_,Start,1773099591255,1773099590821,source,demo,NULL
1773100701,d3dd47b61314fd033563b6592ced659f,PennController,153,0,intro,NULL,PennController,151,_Header_,Start,1773099591255,1773099590821,source,demo,NULL
1773100701,d3dd47b61314fd033563b6592ced659f,PennController,153,0,intro,NULL,PennController,151,_Header_,End,1773099591256,1773099590821,source,demo,NULL
1773100701,d3dd47b61314fd033563b6592ced659f,PennController,153,0,intro,NULL,PennController,151,_Trial_,End,1773099612866,1773099590821,source,demo,NULL
1773100701,d3dd47b61314fd033563b6592ced659f,PennController,154,0,consent,NULL,PennController,152,_Trial_,Start,1773099612873,1773099590821,source,demo,NULL
1773100701,d3dd47b61314fd033563b6592ced659f,PennController,154,0,consent,NULL,PennController,152,_Header_,Start,1773099612873,1773099590821,source,demo,NULL
1773100701,d3dd47b61314fd033563b6592ced659f,PennController,154,0,consent,NULL,PennController,152,_Header_,End,1773099612873,1773099590821,source,demo,NULL
1773100701,d3dd47b61314fd033563b6592ced659f,PennController,154,0,consent,NULL,PennController,152,_Trial_,End,1773099618600,1773099590821,source,demo,NULL
1773100701,d3dd47b61314fd033563b6592ced659f,PennController,155,0,demo,NULL,PennController,153,_Trial_,Start,1773099618606,1773099590821,source,demo,NULL
1773100701,d3dd47b61314fd033563b6592ced659f,PennController,155,0,demo,NULL,PennController,153,_Header_,Start,1773099618606,1773099590821,source,demo,NULL
1773100701,d3dd47b61314fd033563b6592ced659f,PennController,155,0,demo,NULL,PennController,153,_Header_,End,1773099618606,1773099590821,source,demo,NULL
1773100701,d3dd47b61314fd033563b6592ced659f,PennController,155,0,demo,NULL,TextInput,age,First,,1773099621782,1773099590821,source,demo,1
1773100701,d3dd47b61314fd033563b6592ced659f,PennController,155,0,demo,NULL,TextInput,gender,First,,1773099622554,1773099590821,source,demo,1
1773100701,d3dd47b61314fd033563b6592ced659f,PennController,155,0,demo,NULL,TextInput,geo,First,,1773099623565,1773099590821,source,demo,1
1773100701,d3dd47b61314fd033563b6592ced659f,PennController,155,0,demo,NULL,TextInput,comp,First,,1773099624578,1773099590821,source,demo,1
1773100701,d3dd47b61314fd033563b6592ced659f,PennController,155,0,demo,NULL,TextInput,language,First,,1773099631575,1773099590821,source,demo,Shift
1773100701,d3dd47b61314fd033563b6592ced659f,PennController,155,0,demo,NULL,TextInput,otherlg,First,,1773099634430,1773099590821,source,demo,Shift
1773100701,d3dd47b61314fd033563b6592ced659f,PennController,155,0,demo,NULL,TextInput,age,Final,1,1773099639595,1773099590821,source,demo,NULL
1773100701,d3dd47b61314fd033563b6592ced659f,PennController,155,0,demo,NULL,TextInput,gender,Final,1,1773099639595,1773099590821,source,demo,NULL
1773100701,d3dd47b61314fd033563b6592ced659f,PennController,155,0,demo,NULL,TextInput,geo,Final,1,1773099639595,1773099590821,source,demo,NULL
1773100701,d3dd47b61314fd033563b6592ced659f,PennController,155,0,demo,NULL,TextInput,comp,Final,1,1773099639595,1773099590821,source,demo,NULL
1773100701,d3dd47b61314fd033563b6592ced659f,PennController,155,0,demo,NULL,TextInput,language,Final,Armenian,1773099639595,1773099590821,source,demo,NULL
1773100701,d3dd47b61314fd033563b6592ced659f,PennController,155,0,demo,NULL,TextInput,otherlg,Final,Greek,1773099639595,1773099590821,source,demo,NULL
1773100701,d3dd47b61314fd033563b6592ced659f,PennController,155,0,demo,NULL,PennController,153,_Trial_,End,1773099639596,1773099590821,source,demo,NULL
1773100701,d3dd47b61314fd033563b6592ced659f,PennController,156,0,instructions,NULL,PennController,154,_Trial_,Start,1773099639601,1773099590821,source,demo,NULL
1773100701,d3dd47b61314fd033563b6592ced659f,PennController,156,0,instructions,NULL,PennController,154,_Header_,Start,1773099639601,1773099590821,source,demo,NULL
1773100701,d3dd47b61314fd033563b6592ced659f,PennController,156,0,instructions,NULL,PennController,154,_Header_,End,1773099639601,1773099590821,source,demo,NULL
1773100701,d3dd47b61314fd033563b6592ced659f,PennController,156,0,instructions,NULL,PennController,154,_Trial_,End,1773099686476,1773099590821,source,demo,NULL
1773100701,d3dd47b61314fd033563b6592ced659f,PennController,157,0,practice_intro,NULL,PennController,155,_Trial_,Start,1773099686480,1773099590821,source,demo,NULL
1773100701,d3dd47b61314fd033563b6592ced659f,PennController,157,0,practice_intro,NULL,PennController,155,_Header_,Start,1773099686481,1773099590821,source,demo,NULL
1773100701,d3dd47b61314fd033563b6592ced659f,PennController,157,0,practice_intro,NULL,PennController,155,_Header_,End,1773099686481,1773099590821,source,demo,NULL
1773100701,d3dd47b61314fd033563b6592ced659f,PennController,157,0,practice_intro,NULL,PennController,155,_Trial_,End,1773099696648,1773099590821,source,demo,NULL
1773100701,d3dd47b61314fd033563b6592ced659f,PennController,147,0,intro_practice,NULL,PennController,145,_Trial_,Start,1773099696657,1773099590821,source,demo,NULL
1773100701,d3dd47b61314fd033563b6592ced659f,PennController,147,0,intro_practice,NULL,PennController,145,_Header_,Start,1773099696657,1773099590821,source,demo,NULL
1773100701,d3dd47b61314fd033563b6592ced659f,PennController,147,0,intro_practice,NULL,PennController,145,_Header_,End,1773099696657,1773099590821,source,demo,NULL
1773100701,d3dd47b61314fd033563b6592ced659f,PennController,147,0,intro_practice,NULL,PennController,145,_Trial_,End,1773099743779,1773099590821,source,demo,NULL
1773100701,d3dd47b61314fd033563b6592ced659f,PennController,148,0,tense_intro_practice,NULL,PennController,146,_Trial_,Start,1773099743783,1773099590821,source,demo,NULL
1773100701,d3dd47b61314fd033563b6592ced659f,PennController,148,0,tense_intro_practice,NULL,PennController,146,_Header_,Start,1773099743783,1773099590821,source,demo,NULL
1773100701,d3dd47b61314fd033563b6592ced659f,PennController,148,0,tense_intro_practice,NULL,PennController,146,_Header_,End,1773099743784,1773099590821,source,demo,NULL
1773100701,d3dd47b61314fd033563b6592ced659f,PennController,148,0,tense_intro_practice,NULL,PennController,146,_Trial_,End,1773099757758,1773099590821,source,demo,NULL
1773100701,d3dd47b61314fd033563b6592ced659f,PennController,149,0,tense_pairs_practice,NULL,PennController,147,_Trial_,Start,1773099757765,1773099590821,source,demo,NULL
1773100701,d3dd47b61314fd033563b6592ced659f,PennController,149,0,tense_pairs_practice,NULL,PennController,147,_Header_,Start,1773099757765,1773099590821,source,demo,NULL
1773100701,d3dd47b61314fd033563b6592ced659f,PennController,149,0,tense_pairs_practice,NULL,PennController,147,_Header_,End,1773099757766,1773099590821,source,demo,NULL
1773100701,d3dd47b61314fd033563b6592ced659f,PennController,149,0,tense_pairs_practice,NULL,PennController,147,_Trial_,End,1773099775559,1773099590821,source,demo,NULL
1773100701,d3dd47b61314fd033563b6592ced659f,PennController,150,0,ready_practice,NULL,PennController,148,_Trial_,Start,1773099775565,1773099590821,source,demo,NULL
1773100701,d3dd47b61314fd033563b6592ced659f,PennController,150,0,ready_practice,NULL,PennController,148,_Header_,Start,1773099775565,1773099590821,source,demo,NULL
1773100701,d3dd47b61314fd033563b6592ced659f,PennController,150,0,ready_practice,NULL,PennController,148,_Header_,End,1773099775565,1773099590821,source,demo,NULL
1773100701,d3dd47b61314fd033563b6592ced659f,PennController,150,0,ready_practice,NULL,PennController,148,_Trial_,End,1773099780905,1773099590821,source,demo,NULL
# 16. Block.
# 17. Verb.
# 18. Form.
# 19. Tense.
# 20. Entity.
# 21. LeftOpt.
# 22. RightOpt.
# 23. PracticeCorrect.
# 24. DecisionRT.
# 25. Comments.
1773100701,d3dd47b61314fd033563b6592ced659f,PennController,151,0,practice_decision_spin_past,NULL,PennController,149,_Trial_,Start,1773099780912,1773099590821,source,demo,practice,spin,spun,PAST,Pirate,Past (C),Future (M),undefined,undefined,NULL
1773100701,d3dd47b61314fd033563b6592ced659f,PennController,151,0,practice_decision_spin_past,NULL,PennController,149,_Header_,Start,1773099780912,1773099590821,source,demo,practice,spin,spun,PAST,Pirate,Past (C),Future (M),undefined,undefined,NULL
1773100701,d3dd47b61314fd033563b6592ced659f,PennController,151,0,practice_decision_spin_past,NULL,PennController,149,_Header_,End,1773099780912,1773099590821,source,demo,practice,spin,spun,PAST,Pirate,Past (C),Future (M),undefined,undefined,NULL
1773100701,d3dd47b61314fd033563b6592ced659f,PennController,151,0,practice_decision_spin_past,NULL,Selector,practice_tenseChoice,Selection,practice_leftOpt,1773099783726,1773099590821,source,demo,practice,spin,spun,PAST,Pirate,Past (C),Future (M),undefined,undefined,practice_leftOpt;practice_rightOpt
1773100701,d3dd47b61314fd033563b6592ced659f,PennController,151,0,practice_decision_spin_past,NULL,PennController,149,_Trial_,End,1773099784932,1773099590821,source,demo,practice,spin,spun,PAST,Pirate,Past (C),Future (M),undefined,undefined,NULL
1773100701,d3dd47b61314fd033563b6592ced659f,PennController,152,0,practice_decision_drag_future,NULL,PennController,150,_Trial_,Start,1773099784942,1773099590821,source,demo,practice,drag,will drag,FUTURE,Pirate,Past (C),Future (M),undefined,undefined,NULL
1773100701,d3dd47b61314fd033563b6592ced659f,PennController,152,0,practice_decision_drag_future,NULL,PennController,150,_Header_,Start,1773099784942,1773099590821,source,demo,practice,drag,will drag,FUTURE,Pirate,Past (C),Future (M),undefined,undefined,NULL
1773100701,d3dd47b61314fd033563b6592ced659f,PennController,152,0,practice_decision_drag_future,NULL,PennController,150,_Header_,End,1773099784942,1773099590821,source,demo,practice,drag,will drag,FUTURE,Pirate,Past (C),Future (M),undefined,undefined,NULL
1773100701,d3dd47b61314fd033563b6592ced659f,PennController,152,0,practice_decision_drag_future,NULL,Selector,practice_tenseChoice,Selection,practice_rightOpt,1773099786710,1773099590821,source,demo,practice,drag,will drag,FUTURE,Pirate,Past (C),Future (M),undefined,undefined,practice_leftOpt;practice_rightOpt
1773100701,d3dd47b61314fd033563b6592ced659f,PennController,152,0,practice_decision_drag_future,NULL,PennController,150,_Trial_,End,1773099787917,1773099590821,source,demo,practice,drag,will drag,FUTURE,Pirate,Past (C),Future (M),undefined,undefined,NULL
# 16. Comments.
1773100701,d3dd47b61314fd033563b6592ced659f,PennController,158,0,exp_ready,NULL,PennController,156,_Trial_,Start,1773099787925,1773099590821,source,demo,NULL
1773100701,d3dd47b61314fd033563b6592ced659f,PennController,158,0,exp_ready,NULL,PennController,156,_Header_,Start,1773099787925,1773099590821,source,demo,NULL
1773100701,d3dd47b61314fd033563b6592ced659f,PennController,158,0,exp_ready,NULL,PennController,156,_Header_,End,1773099787925,1773099590821,source,demo,NULL
1773100701,d3dd47b61314fd033563b6592ced659f,PennController,158,0,exp_ready,NULL,PennController,156,_Trial_,End,1773099795899,1773099590821,source,demo,NULL
# 13. Comments.
1773100701,d3dd47b61314fd033563b6592ced659f,PennController,159,0,check,NULL,PennController,Preloader-0,_PreloadFailed_,pirate_drag_sack_v3.png,1773099855905,NULL
1773100701,d3dd47b61314fd033563b6592ced659f,PennController,159,0,check,NULL,PennController,Preloader-0,_PreloadFailed_,tts_verb_drag.mp3,1773099855905,NULL
1773100701,d3dd47b61314fd033563b6592ced659f,PennController,159,0,check,NULL,PennController,Preloader-0,_PreloadFailed_,pirate_spin_top_v5.png,1773099855905,NULL
1773100701,d3dd47b61314fd033563b6592ced659f,PennController,159,0,check,NULL,PennController,Preloader-0,_Trial_,Start,1773099855905,NULL
1773100701,d3dd47b61314fd033563b6592ced659f,PennController,159,0,check,NULL,PennController,Preloader-0,_Trial_,End,1773099855905,NULL
# 13. exp_start_timestamp.
# 14. source.
# 15. SONA_ID_URL.
# 16. Comments.
1773100701,d3dd47b61314fd033563b6592ced659f,PennController,31,0,intro_m1_block2,NULL,PennController,29,_Trial_,Start,1773099855916,1773099590821,source,demo,NULL
1773100701,d3dd47b61314fd033563b6592ced659f,PennController,31,0,intro_m1_block2,NULL,PennController,29,_Header_,Start,1773099855916,1773099590821,source,demo,NULL
1773100701,d3dd47b61314fd033563b6592ced659f,PennController,31,0,intro_m1_block2,NULL,PennController,29,_Header_,End,1773099855917,1773099590821,source,demo,NULL
1773100701,d3dd47b61314fd033563b6592ced659f,PennController,31,0,intro_m1_block2,NULL,PennController,29,_Trial_,End,1773099893295,1773099590821,source,demo,NULL
1773100701,d3dd47b61314fd033563b6592ced659f,PennController,32,0,tense_intro_m1_block2,NULL,PennController,30,_Trial_,Start,1773099893303,1773099590821,source,demo,NULL
1773100701,d3dd47b61314fd033563b6592ced659f,PennController,32,0,tense_intro_m1_block2,NULL,PennController,30,_Header_,Start,1773099893303,1773099590821,source,demo,NULL
1773100701,d3dd47b61314fd033563b6592ced659f,PennController,32,0,tense_intro_m1_block2,NULL,PennController,30,_Header_,End,1773099893304,1773099590821,source,demo,NULL
1773100701,d3dd47b61314fd033563b6592ced659f,PennController,32,0,tense_intro_m1_block2,NULL,PennController,30,_Trial_,End,1773099903268,1773099590821,source,demo,NULL
1773100701,d3dd47b61314fd033563b6592ced659f,PennController,33,0,tense_pairs_m1_block2,NULL,PennController,31,_PreloadFailed_,pirate_build_tower_v3.png,1773099963281,1773099590821,source,demo,NULL
1773100701,d3dd47b61314fd033563b6592ced659f,PennController,33,0,tense_pairs_m1_block2,NULL,PennController,31,_Trial_,Start,1773099963281,1773099590821,source,demo,NULL
1773100701,d3dd47b61314fd033563b6592ced659f,PennController,33,0,tense_pairs_m1_block2,NULL,PennController,31,_Header_,Start,1773099963281,1773099590821,source,demo,NULL
1773100701,d3dd47b61314fd033563b6592ced659f,PennController,33,0,tense_pairs_m1_block2,NULL,PennController,31,_Header_,End,1773099963283,1773099590821,source,demo,NULL
1773100701,d3dd47b61314fd033563b6592ced659f,PennController,33,0,tense_pairs_m1_block2,NULL,PennController,31,_Trial_,End,1773100007199,1773099590821,source,demo,NULL
1773100701,d3dd47b61314fd033563b6592ced659f,PennController,34,0,ready_m1_block2,NULL,PennController,32,_Trial_,Start,1773100007205,1773099590821,source,demo,NULL
1773100701,d3dd47b61314fd033563b6592ced659f,PennController,34,0,ready_m1_block2,NULL,PennController,32,_Header_,Start,1773100007205,1773099590821,source,demo,NULL
1773100701,d3dd47b61314fd033563b6592ced659f,PennController,34,0,ready_m1_block2,NULL,PennController,32,_Header_,End,1773100007205,1773099590821,source,demo,NULL
1773100701,d3dd47b61314fd033563b6592ced659f,PennController,34,0,ready_m1_block2,NULL,PennController,32,_Trial_,End,1773100011228,1773099590821,source,demo,NULL
# 16. Block.
# 17. Verb.
# 18. Form.
# 19. Tense.
# 20. Entity.
# 21. PatternTag.
# 22. LeftOpt.
# 23. RightOpt.
# 24. DecisionRT.
# 25. Comments.
1773100701,d3dd47b61314fd033563b6592ced659f,PennController,28,0,exp_m1_block2_p2_climb_FUTURE,NULL,PennController,26,_Trial_,Start,1773100011234,1773099590821,source,demo,m1_block2,climb,will climb,FUTURE,Pirate,p2,Past (C),Future (M),1554,NULL
1773100701,d3dd47b61314fd033563b6592ced659f,PennController,28,0,exp_m1_block2_p2_climb_FUTURE,NULL,PennController,26,_Header_,Start,1773100011234,1773099590821,source,demo,m1_block2,climb,will climb,FUTURE,Pirate,p2,Past (C),Future (M),1554,NULL
1773100701,d3dd47b61314fd033563b6592ced659f,PennController,28,0,exp_m1_block2_p2_climb_FUTURE,NULL,PennController,26,_Header_,End,1773100011234,1773099590821,source,demo,m1_block2,climb,will climb,FUTURE,Pirate,p2,Past (C),Future (M),1554,NULL
1773100701,d3dd47b61314fd033563b6592ced659f,PennController,28,0,exp_m1_block2_p2_climb_FUTURE,NULL,Selector,tenseChoice,Selection,rightOpt,1773100013597,1773099590821,source,demo,m1_block2,climb,will climb,FUTURE,Pirate,p2,Past (C),Future (M),1554,leftOpt;rightOpt
1773100701,d3dd47b61314fd033563b6592ced659f,PennController,28,0,exp_m1_block2_p2_climb_FUTURE,NULL,PennController,26,_Trial_,End,1773100013598,1773099590821,source,demo,m1_block2,climb,will climb,FUTURE,Pirate,p2,Past (C),Future (M),1554,NULL
1773100701,d3dd47b61314fd033563b6592ced659f,PennController,26,0,exp_m1_block2_p2_sweep_PAST,NULL,PennController,24,_Trial_,Start,1773100013608,1773099590821,source,demo,m1_block2,sweep,swept,PAST,Wizard,p2,Past (C),Future (M),1927,NULL
1773100701,d3dd47b61314fd033563b6592ced659f,PennController,26,0,exp_m1_block2_p2_sweep_PAST,NULL,PennController,24,_Header_,Start,1773100013608,1773099590821,source,demo,m1_block2,sweep,swept,PAST,Wizard,p2,Past (C),Future (M),1927,NULL
1773100701,d3dd47b61314fd033563b6592ced659f,PennController,26,0,exp_m1_block2_p2_sweep_PAST,NULL,PennController,24,_Header_,End,1773100013609,1773099590821,source,demo,m1_block2,sweep,swept,PAST,Wizard,p2,Past (C),Future (M),1927,NULL
1773100701,d3dd47b61314fd033563b6592ced659f,PennController,26,0,exp_m1_block2_p2_sweep_PAST,NULL,Selector,tenseChoice,Selection,rightOpt,1773100016349,1773099590821,source,demo,m1_block2,sweep,swept,PAST,Wizard,p2,Past (C),Future (M),1927,leftOpt;rightOpt
1773100701,d3dd47b61314fd033563b6592ced659f,PennController,26,0,exp_m1_block2_p2_sweep_PAST,NULL,PennController,24,_Trial_,End,1773100016351,1773099590821,source,demo,m1_block2,sweep,swept,PAST,Wizard,p2,Past (C),Future (M),1927,NULL
1773100701,d3dd47b61314fd033563b6592ced659f,PennController,25,0,exp_m1_block2_p2_build_PAST,NULL,PennController,23,_Trial_,Start,1773100016360,1773099590821,source,demo,m1_block2,build,built,PAST,Pirate,p2,Past (C),Future (M),933,NULL
1773100701,d3dd47b61314fd033563b6592ced659f,PennController,25,0,exp_m1_block2_p2_build_PAST,NULL,PennController,23,_Header_,Start,1773100016360,1773099590821,source,demo,m1_block2,build,built,PAST,Pirate,p2,Past (C),Future (M),933,NULL
1773100701,d3dd47b61314fd033563b6592ced659f,PennController,25,0,exp_m1_block2_p2_build_PAST,NULL,PennController,23,_Header_,End,1773100016361,1773099590821,source,demo,m1_block2,build,built,PAST,Pirate,p2,Past (C),Future (M),933,NULL
1773100701,d3dd47b61314fd033563b6592ced659f,PennController,25,0,exp_m1_block2_p2_build_PAST,NULL,Selector,tenseChoice,Selection,leftOpt,1773100018103,1773099590821,source,demo,m1_block2,build,built,PAST,Pirate,p2,Past (C),Future (M),933,leftOpt;rightOpt
1773100701,d3dd47b61314fd033563b6592ced659f,PennController,25,0,exp_m1_block2_p2_build_PAST,NULL,PennController,23,_Trial_,End,1773100018105,1773099590821,source,demo,m1_block2,build,built,PAST,Pirate,p2,Past (C),Future (M),933,NULL
1773100701,d3dd47b61314fd033563b6592ced659f,PennController,30,0,exp_m1_block2_p2_peel_FUTURE,NULL,PennController,28,_Trial_,Start,1773100018114,1773099590821,source,demo,m1_block2,peel,will peel,FUTURE,Chef,p2,Past (C),Future (M),985,NULL
1773100701,d3dd47b61314fd033563b6592ced659f,PennController,30,0,exp_m1_block2_p2_peel_FUTURE,NULL,PennController,28,_Header_,Start,1773100018114,1773099590821,source,demo,m1_block2,peel,will peel,FUTURE,Chef,p2,Past (C),Future (M),985,NULL
1773100701,d3dd47b61314fd033563b6592ced659f,PennController,30,0,exp_m1_block2_p2_peel_FUTURE,NULL,PennController,28,_Header_,End,1773100018114,1773099590821,source,demo,m1_block2,peel,will peel,FUTURE,Chef,p2,Past (C),Future (M),985,NULL
1773100701,d3dd47b61314fd033563b6592ced659f,PennController,30,0,exp_m1_block2_p2_peel_FUTURE,NULL,Selector,tenseChoice,Selection,rightOpt,1773100019907,1773099590821,source,demo,m1_block2,peel,will peel,FUTURE,Chef,p2,Past (C),Future (M),985,leftOpt;rightOpt
1773100701,d3dd47b61314fd033563b6592ced659f,PennController,30,0,exp_m1_block2_p2_peel_FUTURE,NULL,PennController,28,_Trial_,End,1773100019908,1773099590821,source,demo,m1_block2,peel,will peel,FUTURE,Chef,p2,Past (C),Future (M),985,NULL
1773100701,d3dd47b61314fd033563b6592ced659f,PennController,29,0,exp_m1_block2_p2_stir_FUTURE,NULL,PennController,27,_Trial_,Start,1773100019917,1773099590821,source,demo,m1_block2,stir,will stir,FUTURE,Wizard,p2,Past (C),Future (M),2148,NULL
1773100701,d3dd47b61314fd033563b6592ced659f,PennController,29,0,exp_m1_block2_p2_stir_FUTURE,NULL,PennController,27,_Header_,Start,1773100019917,1773099590821,source,demo,m1_block2,stir,will stir,FUTURE,Wizard,p2,Past (C),Future (M),2148,NULL
1773100701,d3dd47b61314fd033563b6592ced659f,PennController,29,0,exp_m1_block2_p2_stir_FUTURE,NULL,PennController,27,_Header_,End,1773100019917,1773099590821,source,demo,m1_block2,stir,will stir,FUTURE,Wizard,p2,Past (C),Future (M),2148,NULL
1773100701,d3dd47b61314fd033563b6592ced659f,PennController,29,0,exp_m1_block2_p2_stir_FUTURE,NULL,Selector,tenseChoice,Selection,rightOpt,1773100022874,1773099590821,source,demo,m1_block2,stir,will stir,FUTURE,Wizard,p2,Past (C),Future (M),2148,leftOpt;rightOpt
1773100701,d3dd47b61314fd033563b6592ced659f,PennController,29,0,exp_m1_block2_p2_stir_FUTURE,NULL,PennController,27,_Trial_,End,1773100022876,1773099590821,source,demo,m1_block2,stir,will stir,FUTURE,Wizard,p2,Past (C),Future (M),2148,NULL
1773100701,d3dd47b61314fd033563b6592ced659f,PennController,27,0,exp_m1_block2_p2_ride_PAST,NULL,PennController,25,_Trial_,Start,1773100022884,1773099590821,source,demo,m1_block2,ride,rode,PAST,Chef,p2,Past (C),Future (M),1158,NULL
1773100701,d3dd47b61314fd033563b6592ced659f,PennController,27,0,exp_m1_block2_p2_ride_PAST,NULL,PennController,25,_Header_,Start,1773100022884,1773099590821,source,demo,m1_block2,ride,rode,PAST,Chef,p2,Past (C),Future (M),1158,NULL
1773100701,d3dd47b61314fd033563b6592ced659f,PennController,27,0,exp_m1_block2_p2_ride_PAST,NULL,PennController,25,_Header_,End,1773100022884,1773099590821,source,demo,m1_block2,ride,rode,PAST,Chef,p2,Past (C),Future (M),1158,NULL
1773100701,d3dd47b61314fd033563b6592ced659f,PennController,27,0,exp_m1_block2_p2_ride_PAST,NULL,Selector,tenseChoice,Selection,leftOpt,1773100024855,1773099590821,source,demo,m1_block2,ride,rode,PAST,Chef,p2,Past (C),Future (M),1158,leftOpt;rightOpt
1773100701,d3dd47b61314fd033563b6592ced659f,PennController,27,0,exp_m1_block2_p2_ride_PAST,NULL,PennController,25,_Trial_,End,1773100024856,1773099590821,source,demo,m1_block2,ride,rode,PAST,Chef,p2,Past (C),Future (M),1158,NULL
1773100701,d3dd47b61314fd033563b6592ced659f,PennController,19,0,exp_m1_block2_p1_build_PAST,NULL,PennController,17,_Trial_,Start,1773100024866,1773099590821,source,demo,m1_block2,build,built,PAST,Pirate,p1,Past (C),Future (M),2909,NULL
1773100701,d3dd47b61314fd033563b6592ced659f,PennController,19,0,exp_m1_block2_p1_build_PAST,NULL,PennController,17,_Header_,Start,1773100024866,1773099590821,source,demo,m1_block2,build,built,PAST,Pirate,p1,Past (C),Future (M),2909,NULL
1773100701,d3dd47b61314fd033563b6592ced659f,PennController,19,0,exp_m1_block2_p1_build_PAST,NULL,PennController,17,_Header_,End,1773100024866,1773099590821,source,demo,m1_block2,build,built,PAST,Pirate,p1,Past (C),Future (M),2909,NULL
1773100701,d3dd47b61314fd033563b6592ced659f,PennController,19,0,exp_m1_block2_p1_build_PAST,NULL,Selector,tenseChoice,Selection,rightOpt,1773100028586,1773099590821,source,demo,m1_block2,build,built,PAST,Pirate,p1,Past (C),Future (M),2909,leftOpt;rightOpt
1773100701,d3dd47b61314fd033563b6592ced659f,PennController,19,0,exp_m1_block2_p1_build_PAST,NULL,PennController,17,_Trial_,End,1773100028588,1773099590821,source,demo,m1_block2,build,built,PAST,Pirate,p1,Past (C),Future (M),2909,NULL
1773100701,d3dd47b61314fd033563b6592ced659f,PennController,23,0,exp_m1_block2_p1_stir_FUTURE,NULL,PennController,21,_Trial_,Start,1773100028596,1773099590821,source,demo,m1_block2,stir,will stir,FUTURE,Wizard,p1,Past (C),Future (M),1275,NULL
1773100701,d3dd47b61314fd033563b6592ced659f,PennController,23,0,exp_m1_block2_p1_stir_FUTURE,NULL,PennController,21,_Header_,Start,1773100028596,1773099590821,source,demo,m1_block2,stir,will stir,FUTURE,Wizard,p1,Past (C),Future (M),1275,NULL
1773100701,d3dd47b61314fd033563b6592ced659f,PennController,23,0,exp_m1_block2_p1_stir_FUTURE,NULL,PennController,21,_Header_,End,1773100028597,1773099590821,source,demo,m1_block2,stir,will stir,FUTURE,Wizard,p1,Past (C),Future (M),1275,NULL
1773100701,d3dd47b61314fd033563b6592ced659f,PennController,23,0,exp_m1_block2_p1_stir_FUTURE,NULL,Selector,tenseChoice,Selection,rightOpt,1773100030678,1773099590821,source,demo,m1_block2,stir,will stir,FUTURE,Wizard,p1,Past (C),Future (M),1275,leftOpt;rightOpt
1773100701,d3dd47b61314fd033563b6592ced659f,PennController,23,0,exp_m1_block2_p1_stir_FUTURE,NULL,PennController,21,_Trial_,End,1773100030679,1773099590821,source,demo,m1_block2,stir,will stir,FUTURE,Wizard,p1,Past (C),Future (M),1275,NULL
1773100701,d3dd47b61314fd033563b6592ced659f,PennController,22,0,exp_m1_block2_p1_climb_FUTURE,NULL,PennController,20,_Trial_,Start,1773100030688,1773099590821,source,demo,m1_block2,climb,will climb,FUTURE,Pirate,p1,Past (C),Future (M),1606,NULL
1773100701,d3dd47b61314fd033563b6592ced659f,PennController,22,0,exp_m1_block2_p1_climb_FUTURE,NULL,PennController,20,_Header_,Start,1773100030688,1773099590821,source,demo,m1_block2,climb,will climb,FUTURE,Pirate,p1,Past (C),Future (M),1606,NULL
1773100701,d3dd47b61314fd033563b6592ced659f,PennController,22,0,exp_m1_block2_p1_climb_FUTURE,NULL,PennController,20,_Header_,End,1773100030689,1773099590821,source,demo,m1_block2,climb,will climb,FUTURE,Pirate,p1,Past (C),Future (M),1606,NULL
1773100701,d3dd47b61314fd033563b6592ced659f,PennController,22,0,exp_m1_block2_p1_climb_FUTURE,NULL,Selector,tenseChoice,Selection,rightOpt,1773100033102,1773099590821,source,demo,m1_block2,climb,will climb,FUTURE,Pirate,p1,Past (C),Future (M),1606,leftOpt;rightOpt
1773100701,d3dd47b61314fd033563b6592ced659f,PennController,22,0,exp_m1_block2_p1_climb_FUTURE,NULL,PennController,20,_Trial_,End,1773100033104,1773099590821,source,demo,m1_block2,climb,will climb,FUTURE,Pirate,p1,Past (C),Future (M),1606,NULL
1773100701,d3dd47b61314fd033563b6592ced659f,PennController,21,0,exp_m1_block2_p1_ride_PAST,NULL,PennController,19,_Trial_,Start,1773100033112,1773099590821,source,demo,m1_block2,ride,rode,PAST,Chef,p1,Past (C),Future (M),1393,NULL
1773100701,d3dd47b61314fd033563b6592ced659f,PennController,21,0,exp_m1_block2_p1_ride_PAST,NULL,PennController,19,_Header_,Start,1773100033112,1773099590821,source,demo,m1_block2,ride,rode,PAST,Chef,p1,Past (C),Future (M),1393,NULL
1773100701,d3dd47b61314fd033563b6592ced659f,PennController,21,0,exp_m1_block2_p1_ride_PAST,NULL,PennController,19,_Header_,End,1773100033113,1773099590821,source,demo,m1_block2,ride,rode,PAST,Chef,p1,Past (C),Future (M),1393,NULL
1773100701,d3dd47b61314fd033563b6592ced659f,PennController,21,0,exp_m1_block2_p1_ride_PAST,NULL,Selector,tenseChoice,Selection,leftOpt,1773100035316,1773099590821,source,demo,m1_block2,ride,rode,PAST,Chef,p1,Past (C),Future (M),1393,leftOpt;rightOpt
1773100701,d3dd47b61314fd033563b6592ced659f,PennController,21,0,exp_m1_block2_p1_ride_PAST,NULL,PennController,19,_Trial_,End,1773100035317,1773099590821,source,demo,m1_block2,ride,rode,PAST,Chef,p1,Past (C),Future (M),1393,NULL
1773100701,d3dd47b61314fd033563b6592ced659f,PennController,20,0,exp_m1_block2_p1_sweep_PAST,NULL,PennController,18,_Trial_,Start,1773100035327,1773099590821,source,demo,m1_block2,sweep,swept,PAST,Wizard,p1,Past (C),Future (M),2244,NULL
1773100701,d3dd47b61314fd033563b6592ced659f,PennController,20,0,exp_m1_block2_p1_sweep_PAST,NULL,PennController,18,_Header_,Start,1773100035327,1773099590821,source,demo,m1_block2,sweep,swept,PAST,Wizard,p1,Past (C),Future (M),2244,NULL
1773100701,d3dd47b61314fd033563b6592ced659f,PennController,20,0,exp_m1_block2_p1_sweep_PAST,NULL,PennController,18,_Header_,End,1773100035327,1773099590821,source,demo,m1_block2,sweep,swept,PAST,Wizard,p1,Past (C),Future (M),2244,NULL
1773100701,d3dd47b61314fd033563b6592ced659f,PennController,20,0,exp_m1_block2_p1_sweep_PAST,NULL,Selector,tenseChoice,Selection,leftOpt,1773100038384,1773099590821,source,demo,m1_block2,sweep,swept,PAST,Wizard,p1,Past (C),Future (M),2244,leftOpt;rightOpt
1773100701,d3dd47b61314fd033563b6592ced659f,PennController,20,0,exp_m1_block2_p1_sweep_PAST,NULL,PennController,18,_Trial_,End,1773100038385,1773099590821,source,demo,m1_block2,sweep,swept,PAST,Wizard,p1,Past (C),Future (M),2244,NULL
1773100701,d3dd47b61314fd033563b6592ced659f,PennController,24,0,exp_m1_block2_p1_peel_FUTURE,NULL,PennController,22,_Trial_,Start,1773100038396,1773099590821,source,demo,m1_block2,peel,will peel,FUTURE,Chef,p1,Past (C),Future (M),921,NULL
1773100701,d3dd47b61314fd033563b6592ced659f,PennController,24,0,exp_m1_block2_p1_peel_FUTURE,NULL,PennController,22,_Header_,Start,1773100038396,1773099590821,source,demo,m1_block2,peel,will peel,FUTURE,Chef,p1,Past (C),Future (M),921,NULL
1773100701,d3dd47b61314fd033563b6592ced659f,PennController,24,0,exp_m1_block2_p1_peel_FUTURE,NULL,PennController,22,_Header_,End,1773100038396,1773099590821,source,demo,m1_block2,peel,will peel,FUTURE,Chef,p1,Past (C),Future (M),921,NULL
1773100701,d3dd47b61314fd033563b6592ced659f,PennController,24,0,exp_m1_block2_p1_peel_FUTURE,NULL,Selector,tenseChoice,Selection,rightOpt,1773100040129,1773099590821,source,demo,m1_block2,peel,will peel,FUTURE,Chef,p1,Past (C),Future (M),921,leftOpt;rightOpt
1773100701,d3dd47b61314fd033563b6592ced659f,PennController,24,0,exp_m1_block2_p1_peel_FUTURE,NULL,PennController,22,_Trial_,End,1773100040129,1773099590821,source,demo,m1_block2,peel,will peel,FUTURE,Chef,p1,Past (C),Future (M),921,NULL
# 16. Comments.
1773100701,d3dd47b61314fd033563b6592ced659f,PennController,2,0,Break,NULL,PennController,0,_Trial_,Start,1773100040134,1773099590821,source,demo,NULL
1773100701,d3dd47b61314fd033563b6592ced659f,PennController,2,0,Break,NULL,PennController,0,_Header_,Start,1773100040134,1773099590821,source,demo,NULL
1773100701,d3dd47b61314fd033563b6592ced659f,PennController,2,0,Break,NULL,PennController,0,_Header_,End,1773100040135,1773099590821,source,demo,NULL
1773100701,d3dd47b61314fd033563b6592ced659f,PennController,2,0,Break,NULL,PennController,0,_Trial_,End,1773100044340,1773099590821,source,demo,NULL
1773100701,d3dd47b61314fd033563b6592ced659f,PennController,15,0,intro_m1_block1,NULL,PennController,13,_Trial_,Start,1773100044350,1773099590821,source,demo,NULL
1773100701,d3dd47b61314fd033563b6592ced659f,PennController,15,0,intro_m1_block1,NULL,PennController,13,_Header_,Start,1773100044350,1773099590821,source,demo,NULL
1773100701,d3dd47b61314fd033563b6592ced659f,PennController,15,0,intro_m1_block1,NULL,PennController,13,_Header_,End,1773100044350,1773099590821,source,demo,NULL
1773100701,d3dd47b61314fd033563b6592ced659f,PennController,15,0,intro_m1_block1,NULL,PennController,13,_Trial_,End,1773100081761,1773099590821,source,demo,NULL
1773100701,d3dd47b61314fd033563b6592ced659f,PennController,16,0,tense_intro_m1_block1,NULL,PennController,14,_Trial_,Start,1773100081770,1773099590821,source,demo,NULL
1773100701,d3dd47b61314fd033563b6592ced659f,PennController,16,0,tense_intro_m1_block1,NULL,PennController,14,_Header_,Start,1773100081770,1773099590821,source,demo,NULL
1773100701,d3dd47b61314fd033563b6592ced659f,PennController,16,0,tense_intro_m1_block1,NULL,PennController,14,_Header_,End,1773100081770,1773099590821,source,demo,NULL
1773100701,d3dd47b61314fd033563b6592ced659f,PennController,16,0,tense_intro_m1_block1,NULL,PennController,14,_Trial_,End,1773100089579,1773099590821,source,demo,NULL
1773100701,d3dd47b61314fd033563b6592ced659f,PennController,17,0,tense_pairs_m1_block1,NULL,PennController,15,_Trial_,Start,1773100089589,1773099590821,source,demo,NULL
1773100701,d3dd47b61314fd033563b6592ced659f,PennController,17,0,tense_pairs_m1_block1,NULL,PennController,15,_Header_,Start,1773100089589,1773099590821,source,demo,NULL
1773100701,d3dd47b61314fd033563b6592ced659f,PennController,17,0,tense_pairs_m1_block1,NULL,PennController,15,_Header_,End,1773100089589,1773099590821,source,demo,NULL
1773100701,d3dd47b61314fd033563b6592ced659f,PennController,17,0,tense_pairs_m1_block1,NULL,PennController,15,_Trial_,End,1773100110760,1773099590821,source,demo,NULL
1773100701,d3dd47b61314fd033563b6592ced659f,PennController,18,0,ready_m1_block1,NULL,PennController,16,_Trial_,Start,1773100110764,1773099590821,source,demo,NULL
1773100701,d3dd47b61314fd033563b6592ced659f,PennController,18,0,ready_m1_block1,NULL,PennController,16,_Header_,Start,1773100110764,1773099590821,source,demo,NULL
1773100701,d3dd47b61314fd033563b6592ced659f,PennController,18,0,ready_m1_block1,NULL,PennController,16,_Header_,End,1773100110764,1773099590821,source,demo,NULL
1773100701,d3dd47b61314fd033563b6592ced659f,PennController,18,0,ready_m1_block1,NULL,PennController,16,_Trial_,End,1773100112451,1773099590821,source,demo,NULL
# 16. Block.
# 17. Verb.
# 18. Form.
# 19. Tense.
# 20. Entity.
# 21. PatternTag.
# 22. LeftOpt.
# 23. RightOpt.
# 24. DecisionRT.
# 25. Comments.
1773100701,d3dd47b61314fd033563b6592ced659f,PennController,12,0,exp_m1_block1_p2_paint_FUTURE,NULL,PennController,10,_Trial_,Start,1773100112457,1773099590821,source,demo,m1_block1,paint,will paint,FUTURE,Pirate,p2,Past (C),Future (M),1750,NULL
1773100701,d3dd47b61314fd033563b6592ced659f,PennController,12,0,exp_m1_block1_p2_paint_FUTURE,NULL,PennController,10,_Header_,Start,1773100112457,1773099590821,source,demo,m1_block1,paint,will paint,FUTURE,Pirate,p2,Past (C),Future (M),1750,NULL
1773100701,d3dd47b61314fd033563b6592ced659f,PennController,12,0,exp_m1_block1_p2_paint_FUTURE,NULL,PennController,10,_Header_,End,1773100112457,1773099590821,source,demo,m1_block1,paint,will paint,FUTURE,Pirate,p2,Past (C),Future (M),1750,NULL
1773100701,d3dd47b61314fd033563b6592ced659f,PennController,12,0,exp_m1_block1_p2_paint_FUTURE,NULL,Selector,tenseChoice,Selection,rightOpt,1773100115018,1773099590821,source,demo,m1_block1,paint,will paint,FUTURE,Pirate,p2,Past (C),Future (M),1750,leftOpt;rightOpt
1773100701,d3dd47b61314fd033563b6592ced659f,PennController,12,0,exp_m1_block1_p2_paint_FUTURE,NULL,PennController,10,_Trial_,End,1773100115019,1773099590821,source,demo,m1_block1,paint,will paint,FUTURE,Pirate,p2,Past (C),Future (M),1750,NULL
1773100701,d3dd47b61314fd033563b6592ced659f,PennController,10,0,exp_m1_block1_p2_read_PAST,NULL,PennController,8,_Trial_,Start,1773100115023,1773099590821,source,demo,m1_block1,read,read,PAST,Wizard,p2,Past (C),Future (M),1230,NULL
1773100701,d3dd47b61314fd033563b6592ced659f,PennController,10,0,exp_m1_block1_p2_read_PAST,NULL,PennController,8,_Header_,Start,1773100115023,1773099590821,source,demo,m1_block1,read,read,PAST,Wizard,p2,Past (C),Future (M),1230,NULL
1773100701,d3dd47b61314fd033563b6592ced659f,PennController,10,0,exp_m1_block1_p2_read_PAST,NULL,PennController,8,_Header_,End,1773100115023,1773099590821,source,demo,m1_block1,read,read,PAST,Wizard,p2,Past (C),Future (M),1230,NULL
1773100701,d3dd47b61314fd033563b6592ced659f,PennController,10,0,exp_m1_block1_p2_read_PAST,NULL,Selector,tenseChoice,Selection,leftOpt,1773100117066,1773099590821,source,demo,m1_block1,read,read,PAST,Wizard,p2,Past (C),Future (M),1230,leftOpt;rightOpt
1773100701,d3dd47b61314fd033563b6592ced659f,PennController,10,0,exp_m1_block1_p2_read_PAST,NULL,PennController,8,_Trial_,End,1773100117067,1773099590821,source,demo,m1_block1,read,read,PAST,Wizard,p2,Past (C),Future (M),1230,NULL
1773100701,d3dd47b61314fd033563b6592ced659f,PennController,9,0,exp_m1_block1_p2_drink_PAST,NULL,PennController,7,_Trial_,Start,1773100117074,1773099590821,source,demo,m1_block1,drink,drank,PAST,Pirate,p2,Past (C),Future (M),1566,NULL
1773100701,d3dd47b61314fd033563b6592ced659f,PennController,9,0,exp_m1_block1_p2_drink_PAST,NULL,PennController,7,_Header_,Start,1773100117074,1773099590821,source,demo,m1_block1,drink,drank,PAST,Pirate,p2,Past (C),Future (M),1566,NULL
1773100701,d3dd47b61314fd033563b6592ced659f,PennController,9,0,exp_m1_block1_p2_drink_PAST,NULL,PennController,7,_Header_,End,1773100117075,1773099590821,source,demo,m1_block1,drink,drank,PAST,Pirate,p2,Past (C),Future (M),1566,NULL
1773100701,d3dd47b61314fd033563b6592ced659f,PennController,9,0,exp_m1_block1_p2_drink_PAST,NULL,Selector,tenseChoice,Selection,leftOpt,1773100119455,1773099590821,source,demo,m1_block1,drink,drank,PAST,Pirate,p2,Past (C),Future (M),1566,leftOpt;rightOpt
1773100701,d3dd47b61314fd033563b6592ced659f,PennController,9,0,exp_m1_block1_p2_drink_PAST,NULL,PennController,7,_Trial_,End,1773100119457,1773099590821,source,demo,m1_block1,drink,drank,PAST,Pirate,p2,Past (C),Future (M),1566,NULL
1773100701,d3dd47b61314fd033563b6592ced659f,PennController,14,0,exp_m1_block1_p2_push_FUTURE,NULL,PennController,12,_Trial_,Start,1773100119467,1773099590821,source,demo,m1_block1,push,will push,FUTURE,Chef,p2,Past (C),Future (M),1263,NULL
1773100701,d3dd47b61314fd033563b6592ced659f,PennController,14,0,exp_m1_block1_p2_push_FUTURE,NULL,PennController,12,_Header_,Start,1773100119467,1773099590821,source,demo,m1_block1,push,will push,FUTURE,Chef,p2,Past (C),Future (M),1263,NULL
1773100701,d3dd47b61314fd033563b6592ced659f,PennController,14,0,exp_m1_block1_p2_push_FUTURE,NULL,PennController,12,_Header_,End,1773100119468,1773099590821,source,demo,m1_block1,push,will push,FUTURE,Chef,p2,Past (C),Future (M),1263,NULL
1773100701,d3dd47b61314fd033563b6592ced659f,PennController,14,0,exp_m1_block1_p2_push_FUTURE,NULL,Selector,tenseChoice,Selection,rightOpt,1773100121543,1773099590821,source,demo,m1_block1,push,will push,FUTURE,Chef,p2,Past (C),Future (M),1263,leftOpt;rightOpt
1773100701,d3dd47b61314fd033563b6592ced659f,PennController,14,0,exp_m1_block1_p2_push_FUTURE,NULL,PennController,12,_Trial_,End,1773100121544,1773099590821,source,demo,m1_block1,push,will push,FUTURE,Chef,p2,Past (C),Future (M),1263,NULL
1773100701,d3dd47b61314fd033563b6592ced659f,PennController,13,0,exp_m1_block1_p2_wash_FUTURE,NULL,PennController,11,_Trial_,Start,1773100121551,1773099590821,source,demo,m1_block1,wash,will wash,FUTURE,Wizard,p2,Past (C),Future (M),2789,NULL
1773100701,d3dd47b61314fd033563b6592ced659f,PennController,13,0,exp_m1_block1_p2_wash_FUTURE,NULL,PennController,11,_Header_,Start,1773100121551,1773099590821,source,demo,m1_block1,wash,will wash,FUTURE,Wizard,p2,Past (C),Future (M),2789,NULL
1773100701,d3dd47b61314fd033563b6592ced659f,PennController,13,0,exp_m1_block1_p2_wash_FUTURE,NULL,PennController,11,_Header_,End,1773100121551,1773099590821,source,demo,m1_block1,wash,will wash,FUTURE,Wizard,p2,Past (C),Future (M),2789,NULL
1773100701,d3dd47b61314fd033563b6592ced659f,PennController,13,0,exp_m1_block1_p2_wash_FUTURE,NULL,Selector,tenseChoice,Selection,leftOpt,1773100125150,1773099590821,source,demo,m1_block1,wash,will wash,FUTURE,Wizard,p2,Past (C),Future (M),2789,leftOpt;rightOpt
1773100701,d3dd47b61314fd033563b6592ced659f,PennController,13,0,exp_m1_block1_p2_wash_FUTURE,NULL,PennController,11,_Trial_,End,1773100125151,1773099590821,source,demo,m1_block1,wash,will wash,FUTURE,Wizard,p2,Past (C),Future (M),2789,NULL
1773100701,d3dd47b61314fd033563b6592ced659f,PennController,11,0,exp_m1_block1_p2_eat_PAST,NULL,PennController,9,_Trial_,Start,1773100125159,1773099590821,source,demo,m1_block1,eat,ate,PAST,Chef,p2,Past (C),Future (M),3518,NULL
1773100701,d3dd47b61314fd033563b6592ced659f,PennController,11,0,exp_m1_block1_p2_eat_PAST,NULL,PennController,9,_Header_,Start,1773100125159,1773099590821,source,demo,m1_block1,eat,ate,PAST,Chef,p2,Past (C),Future (M),3518,NULL
1773100701,d3dd47b61314fd033563b6592ced659f,PennController,11,0,exp_m1_block1_p2_eat_PAST,NULL,PennController,9,_Header_,End,1773100125159,1773099590821,source,demo,m1_block1,eat,ate,PAST,Chef,p2,Past (C),Future (M),3518,NULL
1773100701,d3dd47b61314fd033563b6592ced659f,PennController,11,0,exp_m1_block1_p2_eat_PAST,NULL,Selector,tenseChoice,Selection,rightOpt,1773100129484,1773099590821,source,demo,m1_block1,eat,ate,PAST,Chef,p2,Past (C),Future (M),3518,leftOpt;rightOpt
1773100701,d3dd47b61314fd033563b6592ced659f,PennController,11,0,exp_m1_block1_p2_eat_PAST,NULL,PennController,9,_Trial_,End,1773100129485,1773099590821,source,demo,m1_block1,eat,ate,PAST,Chef,p2,Past (C),Future (M),3518,NULL
1773100701,d3dd47b61314fd033563b6592ced659f,PennController,3,0,exp_m1_block1_p1_drink_PAST,NULL,PennController,1,_Trial_,Start,1773100129495,1773099590821,source,demo,m1_block1,drink,drank,PAST,Pirate,p1,Past (C),Future (M),1652,NULL
1773100701,d3dd47b61314fd033563b6592ced659f,PennController,3,0,exp_m1_block1_p1_drink_PAST,NULL,PennController,1,_Header_,Start,1773100129495,1773099590821,source,demo,m1_block1,drink,drank,PAST,Pirate,p1,Past (C),Future (M),1652,NULL
1773100701,d3dd47b61314fd033563b6592ced659f,PennController,3,0,exp_m1_block1_p1_drink_PAST,NULL,PennController,1,_Header_,End,1773100129495,1773099590821,source,demo,m1_block1,drink,drank,PAST,Pirate,p1,Past (C),Future (M),1652,NULL
1773100701,d3dd47b61314fd033563b6592ced659f,PennController,3,0,exp_m1_block1_p1_drink_PAST,NULL,Selector,tenseChoice,Selection,leftOpt,1773100131963,1773099590821,source,demo,m1_block1,drink,drank,PAST,Pirate,p1,Past (C),Future (M),1652,leftOpt;rightOpt
1773100701,d3dd47b61314fd033563b6592ced659f,PennController,3,0,exp_m1_block1_p1_drink_PAST,NULL,PennController,1,_Trial_,End,1773100131964,1773099590821,source,demo,m1_block1,drink,drank,PAST,Pirate,p1,Past (C),Future (M),1652,NULL
1773100701,d3dd47b61314fd033563b6592ced659f,PennController,7,0,exp_m1_block1_p1_wash_FUTURE,NULL,PennController,5,_Trial_,Start,1773100131974,1773099590821,source,demo,m1_block1,wash,will wash,FUTURE,Wizard,p1,Past (C),Future (M),1192,NULL
1773100701,d3dd47b61314fd033563b6592ced659f,PennController,7,0,exp_m1_block1_p1_wash_FUTURE,NULL,PennController,5,_Header_,Start,1773100131974,1773099590821,source,demo,m1_block1,wash,will wash,FUTURE,Wizard,p1,Past (C),Future (M),1192,NULL
1773100701,d3dd47b61314fd033563b6592ced659f,PennController,7,0,exp_m1_block1_p1_wash_FUTURE,NULL,PennController,5,_Header_,End,1773100131974,1773099590821,source,demo,m1_block1,wash,will wash,FUTURE,Wizard,p1,Past (C),Future (M),1192,NULL
1773100701,d3dd47b61314fd033563b6592ced659f,PennController,7,0,exp_m1_block1_p1_wash_FUTURE,NULL,Selector,tenseChoice,Selection,rightOpt,1773100133976,1773099590821,source,demo,m1_block1,wash,will wash,FUTURE,Wizard,p1,Past (C),Future (M),1192,leftOpt;rightOpt
1773100701,d3dd47b61314fd033563b6592ced659f,PennController,7,0,exp_m1_block1_p1_wash_FUTURE,NULL,PennController,5,_Trial_,End,1773100133978,1773099590821,source,demo,m1_block1,wash,will wash,FUTURE,Wizard,p1,Past (C),Future (M),1192,NULL
1773100701,d3dd47b61314fd033563b6592ced659f,PennController,6,0,exp_m1_block1_p1_paint_FUTURE,NULL,PennController,4,_Trial_,Start,1773100133986,1773099590821,source,demo,m1_block1,paint,will paint,FUTURE,Pirate,p1,Past (C),Future (M),1306,NULL
1773100701,d3dd47b61314fd033563b6592ced659f,PennController,6,0,exp_m1_block1_p1_paint_FUTURE,NULL,PennController,4,_Header_,Start,1773100133986,1773099590821,source,demo,m1_block1,paint,will paint,FUTURE,Pirate,p1,Past (C),Future (M),1306,NULL
1773100701,d3dd47b61314fd033563b6592ced659f,PennController,6,0,exp_m1_block1_p1_paint_FUTURE,NULL,PennController,4,_Header_,End,1773100133986,1773099590821,source,demo,m1_block1,paint,will paint,FUTURE,Pirate,p1,Past (C),Future (M),1306,NULL
1773100701,d3dd47b61314fd033563b6592ced659f,PennController,6,0,exp_m1_block1_p1_paint_FUTURE,NULL,Selector,tenseChoice,Selection,rightOpt,1773100136099,1773099590821,source,demo,m1_block1,paint,will paint,FUTURE,Pirate,p1,Past (C),Future (M),1306,leftOpt;rightOpt
1773100701,d3dd47b61314fd033563b6592ced659f,PennController,6,0,exp_m1_block1_p1_paint_FUTURE,NULL,PennController,4,_Trial_,End,1773100136100,1773099590821,source,demo,m1_block1,paint,will paint,FUTURE,Pirate,p1,Past (C),Future (M),1306,NULL
1773100701,d3dd47b61314fd033563b6592ced659f,PennController,5,0,exp_m1_block1_p1_eat_PAST,NULL,PennController,3,_Trial_,Start,1773100136110,1773099590821,source,demo,m1_block1,eat,ate,PAST,Chef,p1,Past (C),Future (M),4063,NULL
1773100701,d3dd47b61314fd033563b6592ced659f,PennController,5,0,exp_m1_block1_p1_eat_PAST,NULL,PennController,3,_Header_,Start,1773100136110,1773099590821,source,demo,m1_block1,eat,ate,PAST,Chef,p1,Past (C),Future (M),4063,NULL
1773100701,d3dd47b61314fd033563b6592ced659f,PennController,5,0,exp_m1_block1_p1_eat_PAST,NULL,PennController,3,_Header_,End,1773100136110,1773099590821,source,demo,m1_block1,eat,ate,PAST,Chef,p1,Past (C),Future (M),4063,NULL
1773100701,d3dd47b61314fd033563b6592ced659f,PennController,5,0,exp_m1_block1_p1_eat_PAST,NULL,Selector,tenseChoice,Selection,rightOpt,1773100140985,1773099590821,source,demo,m1_block1,eat,ate,PAST,Chef,p1,Past (C),Future (M),4063,leftOpt;rightOpt
1773100701,d3dd47b61314fd033563b6592ced659f,PennController,5,0,exp_m1_block1_p1_eat_PAST,NULL,PennController,3,_Trial_,End,1773100140986,1773099590821,source,demo,m1_block1,eat,ate,PAST,Chef,p1,Past (C),Future (M),4063,NULL
1773100701,d3dd47b61314fd033563b6592ced659f,PennController,4,0,exp_m1_block1_p1_read_PAST,NULL,PennController,2,_Trial_,Start,1773100140994,1773099590821,source,demo,m1_block1,read,read,PAST,Wizard,p1,Past (C),Future (M),1064,NULL
1773100701,d3dd47b61314fd033563b6592ced659f,PennController,4,0,exp_m1_block1_p1_read_PAST,NULL,PennController,2,_Header_,Start,1773100140994,1773099590821,source,demo,m1_block1,read,read,PAST,Wizard,p1,Past (C),Future (M),1064,NULL
1773100701,d3dd47b61314fd033563b6592ced659f,PennController,4,0,exp_m1_block1_p1_read_PAST,NULL,PennController,2,_Header_,End,1773100140994,1773099590821,source,demo,m1_block1,read,read,PAST,Wizard,p1,Past (C),Future (M),1064,NULL
1773100701,d3dd47b61314fd033563b6592ced659f,PennController,4,0,exp_m1_block1_p1_read_PAST,NULL,Selector,tenseChoice,Selection,leftOpt,1773100142868,1773099590821,source,demo,m1_block1,read,read,PAST,Wizard,p1,Past (C),Future (M),1064,leftOpt;rightOpt
1773100701,d3dd47b61314fd033563b6592ced659f,PennController,4,0,exp_m1_block1_p1_read_PAST,NULL,PennController,2,_Trial_,End,1773100142870,1773099590821,source,demo,m1_block1,read,read,PAST,Wizard,p1,Past (C),Future (M),1064,NULL
1773100701,d3dd47b61314fd033563b6592ced659f,PennController,8,0,exp_m1_block1_p1_push_FUTURE,NULL,PennController,6,_Trial_,Start,1773100142878,1773099590821,source,demo,m1_block1,push,will push,FUTURE,Chef,p1,Past (C),Future (M),1174,NULL
1773100701,d3dd47b61314fd033563b6592ced659f,PennController,8,0,exp_m1_block1_p1_push_FUTURE,NULL,PennController,6,_Header_,Start,1773100142878,1773099590821,source,demo,m1_block1,push,will push,FUTURE,Chef,p1,Past (C),Future (M),1174,NULL
1773100701,d3dd47b61314fd033563b6592ced659f,PennController,8,0,exp_m1_block1_p1_push_FUTURE,NULL,PennController,6,_Header_,End,1773100142879,1773099590821,source,demo,m1_block1,push,will push,FUTURE,Chef,p1,Past (C),Future (M),1174,NULL
1773100701,d3dd47b61314fd033563b6592ced659f,PennController,8,0,exp_m1_block1_p1_push_FUTURE,NULL,Selector,tenseChoice,Selection,rightOpt,1773100144861,1773099590821,source,demo,m1_block1,push,will push,FUTURE,Chef,p1,Past (C),Future (M),1174,leftOpt;rightOpt
1773100701,d3dd47b61314fd033563b6592ced659f,PennController,8,0,exp_m1_block1_p1_push_FUTURE,NULL,PennController,6,_Trial_,End,1773100144863,1773099590821,source,demo,m1_block1,push,will push,FUTURE,Chef,p1,Past (C),Future (M),1174,NULL
# 16. Comments.
1773100701,d3dd47b61314fd033563b6592ced659f,PennController,2,0,Break,NULL,PennController,0,_Trial_,Start,1773100144872,1773099590821,source,demo,NULL
1773100701,d3dd47b61314fd033563b6592ced659f,PennController,2,0,Break,NULL,PennController,0,_Header_,Start,1773100144872,1773099590821,source,demo,NULL
1773100701,d3dd47b61314fd033563b6592ced659f,PennController,2,0,Break,NULL,PennController,0,_Header_,End,1773100144872,1773099590821,source,demo,NULL
1773100701,d3dd47b61314fd033563b6592ced659f,PennController,2,0,Break,NULL,PennController,0,_Trial_,End,1773100147344,1773099590821,source,demo,NULL
1773100701,d3dd47b61314fd033563b6592ced659f,PennController,47,0,intro_m1_block3,NULL,PennController,45,_Trial_,Start,1773100147353,1773099590821,source,demo,NULL
1773100701,d3dd47b61314fd033563b6592ced659f,PennController,47,0,intro_m1_block3,NULL,PennController,45,_Header_,Start,1773100147353,1773099590821,source,demo,NULL
1773100701,d3dd47b61314fd033563b6592ced659f,PennController,47,0,intro_m1_block3,NULL,PennController,45,_Header_,End,1773100147353,1773099590821,source,demo,NULL
1773100701,d3dd47b61314fd033563b6592ced659f,PennController,47,0,intro_m1_block3,NULL,PennController,45,_Trial_,End,1773100163518,1773099590821,source,demo,NULL
1773100701,d3dd47b61314fd033563b6592ced659f,PennController,48,0,tense_intro_m1_block3,NULL,PennController,46,_Trial_,Start,1773100163523,1773099590821,source,demo,NULL
1773100701,d3dd47b61314fd033563b6592ced659f,PennController,48,0,tense_intro_m1_block3,NULL,PennController,46,_Header_,Start,1773100163523,1773099590821,source,demo,NULL
1773100701,d3dd47b61314fd033563b6592ced659f,PennController,48,0,tense_intro_m1_block3,NULL,PennController,46,_Header_,End,1773100163523,1773099590821,source,demo,NULL
1773100701,d3dd47b61314fd033563b6592ced659f,PennController,48,0,tense_intro_m1_block3,NULL,PennController,46,_Trial_,End,1773100168577,1773099590821,source,demo,NULL
1773100701,d3dd47b61314fd033563b6592ced659f,PennController,49,0,tense_pairs_m1_block3,NULL,PennController,47,_PreloadFailed_,pirate_blow_bubbles_v5.png,1773100228586,1773099590821,source,demo,NULL
1773100701,d3dd47b61314fd033563b6592ced659f,PennController,49,0,tense_pairs_m1_block3,NULL,PennController,47,_Trial_,Start,1773100228586,1773099590821,source,demo,NULL
1773100701,d3dd47b61314fd033563b6592ced659f,PennController,49,0,tense_pairs_m1_block3,NULL,PennController,47,_Header_,Start,1773100228586,1773099590821,source,demo,NULL
1773100701,d3dd47b61314fd033563b6592ced659f,PennController,49,0,tense_pairs_m1_block3,NULL,PennController,47,_Header_,End,1773100228587,1773099590821,source,demo,NULL
1773100701,d3dd47b61314fd033563b6592ced659f,PennController,49,0,tense_pairs_m1_block3,NULL,PennController,47,_Trial_,End,1773100248455,1773099590821,source,demo,NULL
1773100701,d3dd47b61314fd033563b6592ced659f,PennController,50,0,ready_m1_block3,NULL,PennController,48,_Trial_,Start,1773100248460,1773099590821,source,demo,NULL
1773100701,d3dd47b61314fd033563b6592ced659f,PennController,50,0,ready_m1_block3,NULL,PennController,48,_Header_,Start,1773100248460,1773099590821,source,demo,NULL
1773100701,d3dd47b61314fd033563b6592ced659f,PennController,50,0,ready_m1_block3,NULL,PennController,48,_Header_,End,1773100248460,1773099590821,source,demo,NULL
1773100701,d3dd47b61314fd033563b6592ced659f,PennController,50,0,ready_m1_block3,NULL,PennController,48,_Trial_,End,1773100249827,1773099590821,source,demo,NULL
# 16. Block.
# 17. Verb.
# 18. Form.
# 19. Tense.
# 20. Entity.
# 21. PatternTag.
# 22. LeftOpt.
# 23. RightOpt.
# 24. DecisionRT.
# 25. Comments.
1773100701,d3dd47b61314fd033563b6592ced659f,PennController,44,0,exp_m1_block3_p2_carry_FUTURE,NULL,PennController,42,_Trial_,Start,1773100249833,1773099590821,source,demo,m1_block3,carry,will carry,FUTURE,Pirate,p2,Past (C),Future (M),2369,NULL
1773100701,d3dd47b61314fd033563b6592ced659f,PennController,44,0,exp_m1_block3_p2_carry_FUTURE,NULL,PennController,42,_Header_,Start,1773100249833,1773099590821,source,demo,m1_block3,carry,will carry,FUTURE,Pirate,p2,Past (C),Future (M),2369,NULL
1773100701,d3dd47b61314fd033563b6592ced659f,PennController,44,0,exp_m1_block3_p2_carry_FUTURE,NULL,PennController,42,_Header_,End,1773100249833,1773099590821,source,demo,m1_block3,carry,will carry,FUTURE,Pirate,p2,Past (C),Future (M),2369,NULL
1773100701,d3dd47b61314fd033563b6592ced659f,PennController,44,0,exp_m1_block3_p2_carry_FUTURE,NULL,Selector,tenseChoice,Selection,rightOpt,1773100253011,1773099590821,source,demo,m1_block3,carry,will carry,FUTURE,Pirate,p2,Past (C),Future (M),2369,leftOpt;rightOpt
1773100701,d3dd47b61314fd033563b6592ced659f,PennController,44,0,exp_m1_block3_p2_carry_FUTURE,NULL,PennController,42,_Trial_,End,1773100253011,1773099590821,source,demo,m1_block3,carry,will carry,FUTURE,Pirate,p2,Past (C),Future (M),2369,NULL
1773100701,d3dd47b61314fd033563b6592ced659f,PennController,42,0,exp_m1_block3_p2_dig_PAST,NULL,PennController,40,_Trial_,Start,1773100253016,1773099590821,source,demo,m1_block3,dig,dug,PAST,Chef,p2,Past (C),Future (M),1009,NULL
1773100701,d3dd47b61314fd033563b6592ced659f,PennController,42,0,exp_m1_block3_p2_dig_PAST,NULL,PennController,40,_Header_,Start,1773100253016,1773099590821,source,demo,m1_block3,dig,dug,PAST,Chef,p2,Past (C),Future (M),1009,NULL
1773100701,d3dd47b61314fd033563b6592ced659f,PennController,42,0,exp_m1_block3_p2_dig_PAST,NULL,PennController,40,_Header_,End,1773100253016,1773099590821,source,demo,m1_block3,dig,dug,PAST,Chef,p2,Past (C),Future (M),1009,NULL
1773100701,d3dd47b61314fd033563b6592ced659f,PennController,42,0,exp_m1_block3_p2_dig_PAST,NULL,Selector,tenseChoice,Selection,leftOpt,1773100254835,1773099590821,source,demo,m1_block3,dig,dug,PAST,Chef,p2,Past (C),Future (M),1009,leftOpt;rightOpt
1773100701,d3dd47b61314fd033563b6592ced659f,PennController,42,0,exp_m1_block3_p2_dig_PAST,NULL,PennController,40,_Trial_,End,1773100254836,1773099590821,source,demo,m1_block3,dig,dug,PAST,Chef,p2,Past (C),Future (M),1009,NULL
1773100701,d3dd47b61314fd033563b6592ced659f,PennController,41,0,exp_m1_block3_p2_blow_PAST,NULL,PennController,39,_Trial_,Start,1773100254843,1773099590821,source,demo,m1_block3,blow,blew,PAST,Pirate,p2,Past (C),Future (M),1112,NULL
1773100701,d3dd47b61314fd033563b6592ced659f,PennController,41,0,exp_m1_block3_p2_blow_PAST,NULL,PennController,39,_Header_,Start,1773100254843,1773099590821,source,demo,m1_block3,blow,blew,PAST,Pirate,p2,Past (C),Future (M),1112,NULL
1773100701,d3dd47b61314fd033563b6592ced659f,PennController,41,0,exp_m1_block3_p2_blow_PAST,NULL,PennController,39,_Header_,End,1773100254843,1773099590821,source,demo,m1_block3,blow,blew,PAST,Pirate,p2,Past (C),Future (M),1112,NULL
1773100701,d3dd47b61314fd033563b6592ced659f,PennController,41,0,exp_m1_block3_p2_blow_PAST,NULL,Selector,tenseChoice,Selection,leftOpt,1773100256759,1773099590821,source,demo,m1_block3,blow,blew,PAST,Pirate,p2,Past (C),Future (M),1112,leftOpt;rightOpt
1773100701,d3dd47b61314fd033563b6592ced659f,PennController,41,0,exp_m1_block3_p2_blow_PAST,NULL,PennController,39,_Trial_,End,1773100256760,1773099590821,source,demo,m1_block3,blow,blew,PAST,Pirate,p2,Past (C),Future (M),1112,NULL
1773100701,d3dd47b61314fd033563b6592ced659f,PennController,46,0,exp_m1_block3_p2_smell_FUTURE,NULL,PennController,44,_Trial_,Start,1773100256767,1773099590821,source,demo,m1_block3,smell,will smell,FUTURE,Wizard,p2,Past (C),Future (M),1174,NULL
1773100701,d3dd47b61314fd033563b6592ced659f,PennController,46,0,exp_m1_block3_p2_smell_FUTURE,NULL,PennController,44,_Header_,Start,1773100256767,1773099590821,source,demo,m1_block3,smell,will smell,FUTURE,Wizard,p2,Past (C),Future (M),1174,NULL
1773100701,d3dd47b61314fd033563b6592ced659f,PennController,46,0,exp_m1_block3_p2_smell_FUTURE,NULL,PennController,44,_Header_,End,1773100256767,1773099590821,source,demo,m1_block3,smell,will smell,FUTURE,Wizard,p2,Past (C),Future (M),1174,NULL
1773100701,d3dd47b61314fd033563b6592ced659f,PennController,46,0,exp_m1_block3_p2_smell_FUTURE,NULL,Selector,tenseChoice,Selection,rightOpt,1773100258756,1773099590821,source,demo,m1_block3,smell,will smell,FUTURE,Wizard,p2,Past (C),Future (M),1174,leftOpt;rightOpt
1773100701,d3dd47b61314fd033563b6592ced659f,PennController,46,0,exp_m1_block3_p2_smell_FUTURE,NULL,PennController,44,_Trial_,End,1773100258757,1773099590821,source,demo,m1_block3,smell,will smell,FUTURE,Wizard,p2,Past (C),Future (M),1174,NULL
1773100701,d3dd47b61314fd033563b6592ced659f,PennController,45,0,exp_m1_block3_p2_play_FUTURE,NULL,PennController,43,_Trial_,Start,1773100258763,1773099590821,source,demo,m1_block3,play,will play,FUTURE,Chef,p2,Past (C),Future (M),2537,NULL
1773100701,d3dd47b61314fd033563b6592ced659f,PennController,45,0,exp_m1_block3_p2_play_FUTURE,NULL,PennController,43,_Header_,Start,1773100258763,1773099590821,source,demo,m1_block3,play,will play,FUTURE,Chef,p2,Past (C),Future (M),2537,NULL
1773100701,d3dd47b61314fd033563b6592ced659f,PennController,45,0,exp_m1_block3_p2_play_FUTURE,NULL,PennController,43,_Header_,End,1773100258763,1773099590821,source,demo,m1_block3,play,will play,FUTURE,Chef,p2,Past (C),Future (M),2537,NULL
1773100701,d3dd47b61314fd033563b6592ced659f,PennController,45,0,exp_m1_block3_p2_play_FUTURE,NULL,Selector,tenseChoice,Selection,rightOpt,1773100262108,1773099590821,source,demo,m1_block3,play,will play,FUTURE,Chef,p2,Past (C),Future (M),2537,leftOpt;rightOpt
1773100701,d3dd47b61314fd033563b6592ced659f,PennController,45,0,exp_m1_block3_p2_play_FUTURE,NULL,PennController,43,_Trial_,End,1773100262110,1773099590821,source,demo,m1_block3,play,will play,FUTURE,Chef,p2,Past (C),Future (M),2537,NULL
1773100701,d3dd47b61314fd033563b6592ced659f,PennController,43,0,exp_m1_block3_p2_shake_PAST,NULL,PennController,41,_Trial_,Start,1773100262117,1773099590821,source,demo,m1_block3,shake,shook,PAST,Wizard,p2,Past (C),Future (M),1553,NULL
1773100701,d3dd47b61314fd033563b6592ced659f,PennController,43,0,exp_m1_block3_p2_shake_PAST,NULL,PennController,41,_Header_,Start,1773100262117,1773099590821,source,demo,m1_block3,shake,shook,PAST,Wizard,p2,Past (C),Future (M),1553,NULL
1773100701,d3dd47b61314fd033563b6592ced659f,PennController,43,0,exp_m1_block3_p2_shake_PAST,NULL,PennController,41,_Header_,End,1773100262117,1773099590821,source,demo,m1_block3,shake,shook,PAST,Wizard,p2,Past (C),Future (M),1553,NULL
1773100701,d3dd47b61314fd033563b6592ced659f,PennController,43,0,exp_m1_block3_p2_shake_PAST,NULL,Selector,tenseChoice,Selection,leftOpt,1773100264478,1773099590821,source,demo,m1_block3,shake,shook,PAST,Wizard,p2,Past (C),Future (M),1553,leftOpt;rightOpt
1773100701,d3dd47b61314fd033563b6592ced659f,PennController,43,0,exp_m1_block3_p2_shake_PAST,NULL,PennController,41,_Trial_,End,1773100264479,1773099590821,source,demo,m1_block3,shake,shook,PAST,Wizard,p2,Past (C),Future (M),1553,NULL
1773100701,d3dd47b61314fd033563b6592ced659f,PennController,35,0,exp_m1_block3_p1_blow_PAST,NULL,PennController,33,_Trial_,Start,1773100264486,1773099590821,source,demo,m1_block3,blow,blew,PAST,Pirate,p1,Past (C),Future (M),2759,NULL
1773100701,d3dd47b61314fd033563b6592ced659f,PennController,35,0,exp_m1_block3_p1_blow_PAST,NULL,PennController,33,_Header_,Start,1773100264486,1773099590821,source,demo,m1_block3,blow,blew,PAST,Pirate,p1,Past (C),Future (M),2759,NULL
1773100701,d3dd47b61314fd033563b6592ced659f,PennController,35,0,exp_m1_block3_p1_blow_PAST,NULL,PennController,33,_Header_,End,1773100264486,1773099590821,source,demo,m1_block3,blow,blew,PAST,Pirate,p1,Past (C),Future (M),2759,NULL
1773100701,d3dd47b61314fd033563b6592ced659f,PennController,35,0,exp_m1_block3_p1_blow_PAST,NULL,Selector,tenseChoice,Selection,leftOpt,1773100268055,1773099590821,source,demo,m1_block3,blow,blew,PAST,Pirate,p1,Past (C),Future (M),2759,leftOpt;rightOpt
1773100701,d3dd47b61314fd033563b6592ced659f,PennController,35,0,exp_m1_block3_p1_blow_PAST,NULL,PennController,33,_Trial_,End,1773100268056,1773099590821,source,demo,m1_block3,blow,blew,PAST,Pirate,p1,Past (C),Future (M),2759,NULL
1773100701,d3dd47b61314fd033563b6592ced659f,PennController,39,0,exp_m1_block3_p1_play_FUTURE,NULL,PennController,37,_Trial_,Start,1773100268062,1773099590821,source,demo,m1_block3,play,will play,FUTURE,Chef,p1,Past (C),Future (M),813,NULL
1773100701,d3dd47b61314fd033563b6592ced659f,PennController,39,0,exp_m1_block3_p1_play_FUTURE,NULL,PennController,37,_Header_,Start,1773100268062,1773099590821,source,demo,m1_block3,play,will play,FUTURE,Chef,p1,Past (C),Future (M),813,NULL
1773100701,d3dd47b61314fd033563b6592ced659f,PennController,39,0,exp_m1_block3_p1_play_FUTURE,NULL,PennController,37,_Header_,End,1773100268063,1773099590821,source,demo,m1_block3,play,will play,FUTURE,Chef,p1,Past (C),Future (M),813,NULL
1773100701,d3dd47b61314fd033563b6592ced659f,PennController,39,0,exp_m1_block3_p1_play_FUTURE,NULL,Selector,tenseChoice,Selection,rightOpt,1773100269680,1773099590821,source,demo,m1_block3,play,will play,FUTURE,Chef,p1,Past (C),Future (M),813,leftOpt;rightOpt
1773100701,d3dd47b61314fd033563b6592ced659f,PennController,39,0,exp_m1_block3_p1_play_FUTURE,NULL,PennController,37,_Trial_,End,1773100269682,1773099590821,source,demo,m1_block3,play,will play,FUTURE,Chef,p1,Past (C),Future (M),813,NULL
1773100701,d3dd47b61314fd033563b6592ced659f,PennController,38,0,exp_m1_block3_p1_carry_FUTURE,NULL,PennController,36,_Trial_,Start,1773100269690,1773099590821,source,demo,m1_block3,carry,will carry,FUTURE,Pirate,p1,Past (C),Future (M),1395,NULL
1773100701,d3dd47b61314fd033563b6592ced659f,PennController,38,0,exp_m1_block3_p1_carry_FUTURE,NULL,PennController,36,_Header_,Start,1773100269690,1773099590821,source,demo,m1_block3,carry,will carry,FUTURE,Pirate,p1,Past (C),Future (M),1395,NULL
1773100701,d3dd47b61314fd033563b6592ced659f,PennController,38,0,exp_m1_block3_p1_carry_FUTURE,NULL,PennController,36,_Header_,End,1773100269690,1773099590821,source,demo,m1_block3,carry,will carry,FUTURE,Pirate,p1,Past (C),Future (M),1395,NULL
1773100701,d3dd47b61314fd033563b6592ced659f,PennController,38,0,exp_m1_block3_p1_carry_FUTURE,NULL,Selector,tenseChoice,Selection,rightOpt,1773100271892,1773099590821,source,demo,m1_block3,carry,will carry,FUTURE,Pirate,p1,Past (C),Future (M),1395,leftOpt;rightOpt
1773100701,d3dd47b61314fd033563b6592ced659f,PennController,38,0,exp_m1_block3_p1_carry_FUTURE,NULL,PennController,36,_Trial_,End,1773100271895,1773099590821,source,demo,m1_block3,carry,will carry,FUTURE,Pirate,p1,Past (C),Future (M),1395,NULL
1773100701,d3dd47b61314fd033563b6592ced659f,PennController,37,0,exp_m1_block3_p1_shake_PAST,NULL,PennController,35,_Trial_,Start,1773100271903,1773099590821,source,demo,m1_block3,shake,shook,PAST,Wizard,p1,Past (C),Future (M),833,NULL
1773100701,d3dd47b61314fd033563b6592ced659f,PennController,37,0,exp_m1_block3_p1_shake_PAST,NULL,PennController,35,_Header_,Start,1773100271903,1773099590821,source,demo,m1_block3,shake,shook,PAST,Wizard,p1,Past (C),Future (M),833,NULL
1773100701,d3dd47b61314fd033563b6592ced659f,PennController,37,0,exp_m1_block3_p1_shake_PAST,NULL,PennController,35,_Header_,End,1773100271903,1773099590821,source,demo,m1_block3,shake,shook,PAST,Wizard,p1,Past (C),Future (M),833,NULL
1773100701,d3dd47b61314fd033563b6592ced659f,PennController,37,0,exp_m1_block3_p1_shake_PAST,NULL,Selector,tenseChoice,Selection,leftOpt,1773100273550,1773099590821,source,demo,m1_block3,shake,shook,PAST,Wizard,p1,Past (C),Future (M),833,leftOpt;rightOpt
1773100701,d3dd47b61314fd033563b6592ced659f,PennController,37,0,exp_m1_block3_p1_shake_PAST,NULL,PennController,35,_Trial_,End,1773100273551,1773099590821,source,demo,m1_block3,shake,shook,PAST,Wizard,p1,Past (C),Future (M),833,NULL
1773100701,d3dd47b61314fd033563b6592ced659f,PennController,36,0,exp_m1_block3_p1_dig_PAST,NULL,PennController,34,_Trial_,Start,1773100273558,1773099590821,source,demo,m1_block3,dig,dug,PAST,Chef,p1,Past (C),Future (M),826,NULL
1773100701,d3dd47b61314fd033563b6592ced659f,PennController,36,0,exp_m1_block3_p1_dig_PAST,NULL,PennController,34,_Header_,Start,1773100273559,1773099590821,source,demo,m1_block3,dig,dug,PAST,Chef,p1,Past (C),Future (M),826,NULL
1773100701,d3dd47b61314fd033563b6592ced659f,PennController,36,0,exp_m1_block3_p1_dig_PAST,NULL,PennController,34,_Header_,End,1773100273560,1773099590821,source,demo,m1_block3,dig,dug,PAST,Chef,p1,Past (C),Future (M),826,NULL
1773100701,d3dd47b61314fd033563b6592ced659f,PennController,36,0,exp_m1_block3_p1_dig_PAST,NULL,Selector,tenseChoice,Selection,leftOpt,1773100275195,1773099590821,source,demo,m1_block3,dig,dug,PAST,Chef,p1,Past (C),Future (M),826,leftOpt;rightOpt
1773100701,d3dd47b61314fd033563b6592ced659f,PennController,36,0,exp_m1_block3_p1_dig_PAST,NULL,PennController,34,_Trial_,End,1773100275196,1773099590821,source,demo,m1_block3,dig,dug,PAST,Chef,p1,Past (C),Future (M),826,NULL
1773100701,d3dd47b61314fd033563b6592ced659f,PennController,40,0,exp_m1_block3_p1_smell_FUTURE,NULL,PennController,38,_Trial_,Start,1773100275203,1773099590821,source,demo,m1_block3,smell,will smell,FUTURE,Wizard,p1,Past (C),Future (M),1105,NULL
1773100701,d3dd47b61314fd033563b6592ced659f,PennController,40,0,exp_m1_block3_p1_smell_FUTURE,NULL,PennController,38,_Header_,Start,1773100275203,1773099590821,source,demo,m1_block3,smell,will smell,FUTURE,Wizard,p1,Past (C),Future (M),1105,NULL
1773100701,d3dd47b61314fd033563b6592ced659f,PennController,40,0,exp_m1_block3_p1_smell_FUTURE,NULL,PennController,38,_Header_,End,1773100275203,1773099590821,source,demo,m1_block3,smell,will smell,FUTURE,Wizard,p1,Past (C),Future (M),1105,NULL
1773100701,d3dd47b61314fd033563b6592ced659f,PennController,40,0,exp_m1_block3_p1_smell_FUTURE,NULL,Selector,tenseChoice,Selection,rightOpt,1773100277117,1773099590821,source,demo,m1_block3,smell,will smell,FUTURE,Wizard,p1,Past (C),Future (M),1105,leftOpt;rightOpt
1773100701,d3dd47b61314fd033563b6592ced659f,PennController,40,0,exp_m1_block3_p1_smell_FUTURE,NULL,PennController,38,_Trial_,End,1773100277118,1773099590821,source,demo,m1_block3,smell,will smell,FUTURE,Wizard,p1,Past (C),Future (M),1105,NULL
# 16. Comments.
1773100701,d3dd47b61314fd033563b6592ced659f,PennController,2,0,Break,NULL,PennController,0,_Trial_,Start,1773100277127,1773099590821,source,demo,NULL
1773100701,d3dd47b61314fd033563b6592ced659f,PennController,2,0,Break,NULL,PennController,0,_Header_,Start,1773100277127,1773099590821,source,demo,NULL
1773100701,d3dd47b61314fd033563b6592ced659f,PennController,2,0,Break,NULL,PennController,0,_Header_,End,1773100277127,1773099590821,source,demo,NULL
1773100701,d3dd47b61314fd033563b6592ced659f,PennController,2,0,Break,NULL,PennController,0,_Trial_,End,1773100279418,1773099590821,source,demo,NULL
1773100701,d3dd47b61314fd033563b6592ced659f,PennController,63,0,intro_m2_block1,NULL,PennController,61,_Trial_,Start,1773100279427,1773099590821,source,demo,NULL
1773100701,d3dd47b61314fd033563b6592ced659f,PennController,63,0,intro_m2_block1,NULL,PennController,61,_Header_,Start,1773100279427,1773099590821,source,demo,NULL
1773100701,d3dd47b61314fd033563b6592ced659f,PennController,63,0,intro_m2_block1,NULL,PennController,61,_Header_,End,1773100279427,1773099590821,source,demo,NULL
1773100701,d3dd47b61314fd033563b6592ced659f,PennController,63,0,intro_m2_block1,NULL,PennController,61,_Trial_,End,1773100293866,1773099590821,source,demo,NULL
1773100701,d3dd47b61314fd033563b6592ced659f,PennController,64,0,tense_intro_m2_block1,NULL,PennController,62,_Trial_,Start,1773100293872,1773099590821,source,demo,NULL
1773100701,d3dd47b61314fd033563b6592ced659f,PennController,64,0,tense_intro_m2_block1,NULL,PennController,62,_Header_,Start,1773100293872,1773099590821,source,demo,NULL
1773100701,d3dd47b61314fd033563b6592ced659f,PennController,64,0,tense_intro_m2_block1,NULL,PennController,62,_Header_,End,1773100293872,1773099590821,source,demo,NULL
1773100701,d3dd47b61314fd033563b6592ced659f,PennController,64,0,tense_intro_m2_block1,NULL,PennController,62,_Trial_,End,1773100294590,1773099590821,source,demo,NULL
1773100701,d3dd47b61314fd033563b6592ced659f,PennController,65,0,tense_pairs_m2_block1,NULL,PennController,63,_Trial_,Start,1773100294598,1773099590821,source,demo,NULL
1773100701,d3dd47b61314fd033563b6592ced659f,PennController,65,0,tense_pairs_m2_block1,NULL,PennController,63,_Header_,Start,1773100294598,1773099590821,source,demo,NULL
1773100701,d3dd47b61314fd033563b6592ced659f,PennController,65,0,tense_pairs_m2_block1,NULL,PennController,63,_Header_,End,1773100294598,1773099590821,source,demo,NULL
1773100701,d3dd47b61314fd033563b6592ced659f,PennController,65,0,tense_pairs_m2_block1,NULL,PennController,63,_Trial_,End,1773100310398,1773099590821,source,demo,NULL
1773100701,d3dd47b61314fd033563b6592ced659f,PennController,66,0,ready_m2_block1,NULL,PennController,64,_Trial_,Start,1773100310402,1773099590821,source,demo,NULL
1773100701,d3dd47b61314fd033563b6592ced659f,PennController,66,0,ready_m2_block1,NULL,PennController,64,_Header_,Start,1773100310402,1773099590821,source,demo,NULL
1773100701,d3dd47b61314fd033563b6592ced659f,PennController,66,0,ready_m2_block1,NULL,PennController,64,_Header_,End,1773100310402,1773099590821,source,demo,NULL
1773100701,d3dd47b61314fd033563b6592ced659f,PennController,66,0,ready_m2_block1,NULL,PennController,64,_Trial_,End,1773100311338,1773099590821,source,demo,NULL
# 16. Block.
# 17. Verb.
# 18. Form.
# 19. Tense.
# 20. Entity.
# 21. PatternTag.
# 22. LeftOpt.
# 23. RightOpt.
# 24. DecisionRT.
# 25. Comments.
1773100701,d3dd47b61314fd033563b6592ced659f,PennController,51,0,exp_m2_block1_p1_drink_PAST,NULL,PennController,49,_Trial_,Start,1773100311344,1773099590821,source,demo,m2_block1,drink,drank,PAST,Chef,p1,Past (C),Future (M),974,NULL
1773100701,d3dd47b61314fd033563b6592ced659f,PennController,51,0,exp_m2_block1_p1_drink_PAST,NULL,PennController,49,_Header_,Start,1773100311344,1773099590821,source,demo,m2_block1,drink,drank,PAST,Chef,p1,Past (C),Future (M),974,NULL
1773100701,d3dd47b61314fd033563b6592ced659f,PennController,51,0,exp_m2_block1_p1_drink_PAST,NULL,PennController,49,_Header_,End,1773100311344,1773099590821,source,demo,m2_block1,drink,drank,PAST,Chef,p1,Past (C),Future (M),974,NULL
1773100701,d3dd47b61314fd033563b6592ced659f,PennController,51,0,exp_m2_block1_p1_drink_PAST,NULL,Selector,tenseChoice,Selection,leftOpt,1773100313130,1773099590821,source,demo,m2_block1,drink,drank,PAST,Chef,p1,Past (C),Future (M),974,leftOpt;rightOpt
1773100701,d3dd47b61314fd033563b6592ced659f,PennController,51,0,exp_m2_block1_p1_drink_PAST,NULL,PennController,49,_Trial_,End,1773100313130,1773099590821,source,demo,m2_block1,drink,drank,PAST,Chef,p1,Past (C),Future (M),974,NULL
1773100701,d3dd47b61314fd033563b6592ced659f,PennController,55,0,exp_m2_block1_p1_wash_FUTURE,NULL,PennController,53,_Trial_,Start,1773100313135,1773099590821,source,demo,m2_block1,wash,will wash,FUTURE,Pirate,p1,Past (C),Future (M),924,NULL
1773100701,d3dd47b61314fd033563b6592ced659f,PennController,55,0,exp_m2_block1_p1_wash_FUTURE,NULL,PennController,53,_Header_,Start,1773100313135,1773099590821,source,demo,m2_block1,wash,will wash,FUTURE,Pirate,p1,Past (C),Future (M),924,NULL
1773100701,d3dd47b61314fd033563b6592ced659f,PennController,55,0,exp_m2_block1_p1_wash_FUTURE,NULL,PennController,53,_Header_,End,1773100313135,1773099590821,source,demo,m2_block1,wash,will wash,FUTURE,Pirate,p1,Past (C),Future (M),924,NULL
1773100701,d3dd47b61314fd033563b6592ced659f,PennController,55,0,exp_m2_block1_p1_wash_FUTURE,NULL,Selector,tenseChoice,Selection,rightOpt,1773100314865,1773099590821,source,demo,m2_block1,wash,will wash,FUTURE,Pirate,p1,Past (C),Future (M),924,leftOpt;rightOpt
1773100701,d3dd47b61314fd033563b6592ced659f,PennController,55,0,exp_m2_block1_p1_wash_FUTURE,NULL,PennController,53,_Trial_,End,1773100314866,1773099590821,source,demo,m2_block1,wash,will wash,FUTURE,Pirate,p1,Past (C),Future (M),924,NULL
1773100701,d3dd47b61314fd033563b6592ced659f,PennController,54,0,exp_m2_block1_p1_paint_FUTURE,NULL,PennController,52,_Trial_,Start,1773100314872,1773099590821,source,demo,m2_block1,paint,will paint,FUTURE,Chef,p1,Past (C),Future (M),1058,NULL
1773100701,d3dd47b61314fd033563b6592ced659f,PennController,54,0,exp_m2_block1_p1_paint_FUTURE,NULL,PennController,52,_Header_,Start,1773100314872,1773099590821,source,demo,m2_block1,paint,will paint,FUTURE,Chef,p1,Past (C),Future (M),1058,NULL
1773100701,d3dd47b61314fd033563b6592ced659f,PennController,54,0,exp_m2_block1_p1_paint_FUTURE,NULL,PennController,52,_Header_,End,1773100314872,1773099590821,source,demo,m2_block1,paint,will paint,FUTURE,Chef,p1,Past (C),Future (M),1058,NULL
1773100701,d3dd47b61314fd033563b6592ced659f,PennController,54,0,exp_m2_block1_p1_paint_FUTURE,NULL,Selector,tenseChoice,Selection,rightOpt,1773100316738,1773099590821,source,demo,m2_block1,paint,will paint,FUTURE,Chef,p1,Past (C),Future (M),1058,leftOpt;rightOpt
1773100701,d3dd47b61314fd033563b6592ced659f,PennController,54,0,exp_m2_block1_p1_paint_FUTURE,NULL,PennController,52,_Trial_,End,1773100316739,1773099590821,source,demo,m2_block1,paint,will paint,FUTURE,Chef,p1,Past (C),Future (M),1058,NULL
1773100701,d3dd47b61314fd033563b6592ced659f,PennController,53,0,exp_m2_block1_p1_eat_PAST,NULL,PennController,51,_Trial_,Start,1773100316745,1773099590821,source,demo,m2_block1,eat,ate,PAST,Wizard,p1,Past (C),Future (M),3041,NULL
1773100701,d3dd47b61314fd033563b6592ced659f,PennController,53,0,exp_m2_block1_p1_eat_PAST,NULL,PennController,51,_Header_,Start,1773100316745,1773099590821,source,demo,m2_block1,eat,ate,PAST,Wizard,p1,Past (C),Future (M),3041,NULL
1773100701,d3dd47b61314fd033563b6592ced659f,PennController,53,0,exp_m2_block1_p1_eat_PAST,NULL,PennController,51,_Header_,End,1773100316745,1773099590821,source,demo,m2_block1,eat,ate,PAST,Wizard,p1,Past (C),Future (M),3041,NULL
1773100701,d3dd47b61314fd033563b6592ced659f,PennController,53,0,exp_m2_block1_p1_eat_PAST,NULL,Selector,tenseChoice,Selection,rightOpt,1773100320595,1773099590821,source,demo,m2_block1,eat,ate,PAST,Wizard,p1,Past (C),Future (M),3041,leftOpt;rightOpt
1773100701,d3dd47b61314fd033563b6592ced659f,PennController,53,0,exp_m2_block1_p1_eat_PAST,NULL,PennController,51,_Trial_,End,1773100320596,1773099590821,source,demo,m2_block1,eat,ate,PAST,Wizard,p1,Past (C),Future (M),3041,NULL
1773100701,d3dd47b61314fd033563b6592ced659f,PennController,52,0,exp_m2_block1_p1_read_PAST,NULL,PennController,50,_Trial_,Start,1773100320604,1773099590821,source,demo,m2_block1,read,read,PAST,Pirate,p1,Past (C),Future (M),810,NULL
1773100701,d3dd47b61314fd033563b6592ced659f,PennController,52,0,exp_m2_block1_p1_read_PAST,NULL,PennController,50,_Header_,Start,1773100320604,1773099590821,source,demo,m2_block1,read,read,PAST,Pirate,p1,Past (C),Future (M),810,NULL
1773100701,d3dd47b61314fd033563b6592ced659f,PennController,52,0,exp_m2_block1_p1_read_PAST,NULL,PennController,50,_Header_,End,1773100320604,1773099590821,source,demo,m2_block1,read,read,PAST,Pirate,p1,Past (C),Future (M),810,NULL
1773100701,d3dd47b61314fd033563b6592ced659f,PennController,52,0,exp_m2_block1_p1_read_PAST,NULL,Selector,tenseChoice,Selection,leftOpt,1773100322224,1773099590821,source,demo,m2_block1,read,read,PAST,Pirate,p1,Past (C),Future (M),810,leftOpt;rightOpt
1773100701,d3dd47b61314fd033563b6592ced659f,PennController,52,0,exp_m2_block1_p1_read_PAST,NULL,PennController,50,_Trial_,End,1773100322225,1773099590821,source,demo,m2_block1,read,read,PAST,Pirate,p1,Past (C),Future (M),810,NULL
1773100701,d3dd47b61314fd033563b6592ced659f,PennController,56,0,exp_m2_block1_p1_push_FUTURE,NULL,PennController,54,_Trial_,Start,1773100322230,1773099590821,source,demo,m2_block1,push,will push,FUTURE,Wizard,p1,Past (C),Future (M),1147,NULL
1773100701,d3dd47b61314fd033563b6592ced659f,PennController,56,0,exp_m2_block1_p1_push_FUTURE,NULL,PennController,54,_Header_,Start,1773100322230,1773099590821,source,demo,m2_block1,push,will push,FUTURE,Wizard,p1,Past (C),Future (M),1147,NULL
1773100701,d3dd47b61314fd033563b6592ced659f,PennController,56,0,exp_m2_block1_p1_push_FUTURE,NULL,PennController,54,_Header_,End,1773100322230,1773099590821,source,demo,m2_block1,push,will push,FUTURE,Wizard,p1,Past (C),Future (M),1147,NULL
1773100701,d3dd47b61314fd033563b6592ced659f,PennController,56,0,exp_m2_block1_p1_push_FUTURE,NULL,Selector,tenseChoice,Selection,rightOpt,1773100324183,1773099590821,source,demo,m2_block1,push,will push,FUTURE,Wizard,p1,Past (C),Future (M),1147,leftOpt;rightOpt
1773100701,d3dd47b61314fd033563b6592ced659f,PennController,56,0,exp_m2_block1_p1_push_FUTURE,NULL,PennController,54,_Trial_,End,1773100324184,1773099590821,source,demo,m2_block1,push,will push,FUTURE,Wizard,p1,Past (C),Future (M),1147,NULL
1773100701,d3dd47b61314fd033563b6592ced659f,PennController,60,0,exp_m2_block1_p2_paint_FUTURE,NULL,PennController,58,_Trial_,Start,1773100324190,1773099590821,source,demo,m2_block1,paint,will paint,FUTURE,Chef,p2,Past (C),Future (M),1196,NULL
1773100701,d3dd47b61314fd033563b6592ced659f,PennController,60,0,exp_m2_block1_p2_paint_FUTURE,NULL,PennController,58,_Header_,Start,1773100324190,1773099590821,source,demo,m2_block1,paint,will paint,FUTURE,Chef,p2,Past (C),Future (M),1196,NULL
1773100701,d3dd47b61314fd033563b6592ced659f,PennController,60,0,exp_m2_block1_p2_paint_FUTURE,NULL,PennController,58,_Header_,End,1773100324190,1773099590821,source,demo,m2_block1,paint,will paint,FUTURE,Chef,p2,Past (C),Future (M),1196,NULL
1773100701,d3dd47b61314fd033563b6592ced659f,PennController,60,0,exp_m2_block1_p2_paint_FUTURE,NULL,Selector,tenseChoice,Selection,rightOpt,1773100326192,1773099590821,source,demo,m2_block1,paint,will paint,FUTURE,Chef,p2,Past (C),Future (M),1196,leftOpt;rightOpt
1773100701,d3dd47b61314fd033563b6592ced659f,PennController,60,0,exp_m2_block1_p2_paint_FUTURE,NULL,PennController,58,_Trial_,End,1773100326193,1773099590821,source,demo,m2_block1,paint,will paint,FUTURE,Chef,p2,Past (C),Future (M),1196,NULL
1773100701,d3dd47b61314fd033563b6592ced659f,PennController,58,0,exp_m2_block1_p2_read_PAST,NULL,PennController,56,_Trial_,Start,1773100326199,1773099590821,source,demo,m2_block1,read,read,PAST,Pirate,p2,Past (C),Future (M),696,NULL
1773100701,d3dd47b61314fd033563b6592ced659f,PennController,58,0,exp_m2_block1_p2_read_PAST,NULL,PennController,56,_Header_,Start,1773100326199,1773099590821,source,demo,m2_block1,read,read,PAST,Pirate,p2,Past (C),Future (M),696,NULL
1773100701,d3dd47b61314fd033563b6592ced659f,PennController,58,0,exp_m2_block1_p2_read_PAST,NULL,PennController,56,_Header_,End,1773100326199,1773099590821,source,demo,m2_block1,read,read,PAST,Pirate,p2,Past (C),Future (M),696,NULL
1773100701,d3dd47b61314fd033563b6592ced659f,PennController,58,0,exp_m2_block1_p2_read_PAST,NULL,Selector,tenseChoice,Selection,leftOpt,1773100327700,1773099590821,source,demo,m2_block1,read,read,PAST,Pirate,p2,Past (C),Future (M),696,leftOpt;rightOpt
1773100701,d3dd47b61314fd033563b6592ced659f,PennController,58,0,exp_m2_block1_p2_read_PAST,NULL,PennController,56,_Trial_,End,1773100327702,1773099590821,source,demo,m2_block1,read,read,PAST,Pirate,p2,Past (C),Future (M),696,NULL
1773100701,d3dd47b61314fd033563b6592ced659f,PennController,57,0,exp_m2_block1_p2_drink_PAST,NULL,PennController,55,_Trial_,Start,1773100327710,1773099590821,source,demo,m2_block1,drink,drank,PAST,Chef,p2,Past (C),Future (M),1020,NULL
1773100701,d3dd47b61314fd033563b6592ced659f,PennController,57,0,exp_m2_block1_p2_drink_PAST,NULL,PennController,55,_Header_,Start,1773100327710,1773099590821,source,demo,m2_block1,drink,drank,PAST,Chef,p2,Past (C),Future (M),1020,NULL
1773100701,d3dd47b61314fd033563b6592ced659f,PennController,57,0,exp_m2_block1_p2_drink_PAST,NULL,PennController,55,_Header_,End,1773100327710,1773099590821,source,demo,m2_block1,drink,drank,PAST,Chef,p2,Past (C),Future (M),1020,NULL
1773100701,d3dd47b61314fd033563b6592ced659f,PennController,57,0,exp_m2_block1_p2_drink_PAST,NULL,Selector,tenseChoice,Selection,leftOpt,1773100329535,1773099590821,source,demo,m2_block1,drink,drank,PAST,Chef,p2,Past (C),Future (M),1020,leftOpt;rightOpt
1773100701,d3dd47b61314fd033563b6592ced659f,PennController,57,0,exp_m2_block1_p2_drink_PAST,NULL,PennController,55,_Trial_,End,1773100329536,1773099590821,source,demo,m2_block1,drink,drank,PAST,Chef,p2,Past (C),Future (M),1020,NULL
1773100701,d3dd47b61314fd033563b6592ced659f,PennController,62,0,exp_m2_block1_p2_push_FUTURE,NULL,PennController,60,_Trial_,Start,1773100329543,1773099590821,source,demo,m2_block1,push,will push,FUTURE,Wizard,p2,Past (C),Future (M),1215,NULL
1773100701,d3dd47b61314fd033563b6592ced659f,PennController,62,0,exp_m2_block1_p2_push_FUTURE,NULL,PennController,60,_Header_,Start,1773100329543,1773099590821,source,demo,m2_block1,push,will push,FUTURE,Wizard,p2,Past (C),Future (M),1215,NULL
1773100701,d3dd47b61314fd033563b6592ced659f,PennController,62,0,exp_m2_block1_p2_push_FUTURE,NULL,PennController,60,_Header_,End,1773100329543,1773099590821,source,demo,m2_block1,push,will push,FUTURE,Wizard,p2,Past (C),Future (M),1215,NULL
1773100701,d3dd47b61314fd033563b6592ced659f,PennController,62,0,exp_m2_block1_p2_push_FUTURE,NULL,Selector,tenseChoice,Selection,rightOpt,1773100331566,1773099590821,source,demo,m2_block1,push,will push,FUTURE,Wizard,p2,Past (C),Future (M),1215,leftOpt;rightOpt
1773100701,d3dd47b61314fd033563b6592ced659f,PennController,62,0,exp_m2_block1_p2_push_FUTURE,NULL,PennController,60,_Trial_,End,1773100331568,1773099590821,source,demo,m2_block1,push,will push,FUTURE,Wizard,p2,Past (C),Future (M),1215,NULL
1773100701,d3dd47b61314fd033563b6592ced659f,PennController,61,0,exp_m2_block1_p2_wash_FUTURE,NULL,PennController,59,_Trial_,Start,1773100331577,1773099590821,source,demo,m2_block1,wash,will wash,FUTURE,Pirate,p2,Past (C),Future (M),1285,NULL
1773100701,d3dd47b61314fd033563b6592ced659f,PennController,61,0,exp_m2_block1_p2_wash_FUTURE,NULL,PennController,59,_Header_,Start,1773100331577,1773099590821,source,demo,m2_block1,wash,will wash,FUTURE,Pirate,p2,Past (C),Future (M),1285,NULL
1773100701,d3dd47b61314fd033563b6592ced659f,PennController,61,0,exp_m2_block1_p2_wash_FUTURE,NULL,PennController,59,_Header_,End,1773100331577,1773099590821,source,demo,m2_block1,wash,will wash,FUTURE,Pirate,p2,Past (C),Future (M),1285,NULL
1773100701,d3dd47b61314fd033563b6592ced659f,PennController,61,0,exp_m2_block1_p2_wash_FUTURE,NULL,Selector,tenseChoice,Selection,rightOpt,1773100333669,1773099590821,source,demo,m2_block1,wash,will wash,FUTURE,Pirate,p2,Past (C),Future (M),1285,leftOpt;rightOpt
1773100701,d3dd47b61314fd033563b6592ced659f,PennController,61,0,exp_m2_block1_p2_wash_FUTURE,NULL,PennController,59,_Trial_,End,1773100333671,1773099590821,source,demo,m2_block1,wash,will wash,FUTURE,Pirate,p2,Past (C),Future (M),1285,NULL
1773100701,d3dd47b61314fd033563b6592ced659f,PennController,59,0,exp_m2_block1_p2_eat_PAST,NULL,PennController,57,_Trial_,Start,1773100333677,1773099590821,source,demo,m2_block1,eat,ate,PAST,Wizard,p2,Past (C),Future (M),1199,NULL
1773100701,d3dd47b61314fd033563b6592ced659f,PennController,59,0,exp_m2_block1_p2_eat_PAST,NULL,PennController,57,_Header_,Start,1773100333677,1773099590821,source,demo,m2_block1,eat,ate,PAST,Wizard,p2,Past (C),Future (M),1199,NULL
1773100701,d3dd47b61314fd033563b6592ced659f,PennController,59,0,exp_m2_block1_p2_eat_PAST,NULL,PennController,57,_Header_,End,1773100333678,1773099590821,source,demo,m2_block1,eat,ate,PAST,Wizard,p2,Past (C),Future (M),1199,NULL
1773100701,d3dd47b61314fd033563b6592ced659f,PennController,59,0,exp_m2_block1_p2_eat_PAST,NULL,Selector,tenseChoice,Selection,leftOpt,1773100335687,1773099590821,source,demo,m2_block1,eat,ate,PAST,Wizard,p2,Past (C),Future (M),1199,leftOpt;rightOpt
1773100701,d3dd47b61314fd033563b6592ced659f,PennController,59,0,exp_m2_block1_p2_eat_PAST,NULL,PennController,57,_Trial_,End,1773100335689,1773099590821,source,demo,m2_block1,eat,ate,PAST,Wizard,p2,Past (C),Future (M),1199,NULL
# 16. Comments.
1773100701,d3dd47b61314fd033563b6592ced659f,PennController,2,0,Break,NULL,PennController,0,_Trial_,Start,1773100335697,1773099590821,source,demo,NULL
1773100701,d3dd47b61314fd033563b6592ced659f,PennController,2,0,Break,NULL,PennController,0,_Header_,Start,1773100335697,1773099590821,source,demo,NULL
1773100701,d3dd47b61314fd033563b6592ced659f,PennController,2,0,Break,NULL,PennController,0,_Header_,End,1773100335698,1773099590821,source,demo,NULL
1773100701,d3dd47b61314fd033563b6592ced659f,PennController,2,0,Break,NULL,PennController,0,_Trial_,End,1773100338087,1773099590821,source,demo,NULL
1773100701,d3dd47b61314fd033563b6592ced659f,PennController,95,0,intro_m2_block3,NULL,PennController,93,_Trial_,Start,1773100338094,1773099590821,source,demo,NULL
1773100701,d3dd47b61314fd033563b6592ced659f,PennController,95,0,intro_m2_block3,NULL,PennController,93,_Header_,Start,1773100338094,1773099590821,source,demo,NULL
1773100701,d3dd47b61314fd033563b6592ced659f,PennController,95,0,intro_m2_block3,NULL,PennController,93,_Header_,End,1773100338094,1773099590821,source,demo,NULL
1773100701,d3dd47b61314fd033563b6592ced659f,PennController,95,0,intro_m2_block3,NULL,PennController,93,_Trial_,End,1773100351521,1773099590821,source,demo,NULL
1773100701,d3dd47b61314fd033563b6592ced659f,PennController,96,0,tense_intro_m2_block3,NULL,PennController,94,_Trial_,Start,1773100351529,1773099590821,source,demo,NULL
1773100701,d3dd47b61314fd033563b6592ced659f,PennController,96,0,tense_intro_m2_block3,NULL,PennController,94,_Header_,Start,1773100351529,1773099590821,source,demo,NULL
1773100701,d3dd47b61314fd033563b6592ced659f,PennController,96,0,tense_intro_m2_block3,NULL,PennController,94,_Header_,End,1773100351529,1773099590821,source,demo,NULL
1773100701,d3dd47b61314fd033563b6592ced659f,PennController,96,0,tense_intro_m2_block3,NULL,PennController,94,_Trial_,End,1773100352714,1773099590821,source,demo,NULL
1773100701,d3dd47b61314fd033563b6592ced659f,PennController,97,0,tense_pairs_m2_block3,NULL,PennController,95,_Trial_,Start,1773100352719,1773099590821,source,demo,NULL
1773100701,d3dd47b61314fd033563b6592ced659f,PennController,97,0,tense_pairs_m2_block3,NULL,PennController,95,_Header_,Start,1773100352719,1773099590821,source,demo,NULL
1773100701,d3dd47b61314fd033563b6592ced659f,PennController,97,0,tense_pairs_m2_block3,NULL,PennController,95,_Header_,End,1773100352719,1773099590821,source,demo,NULL
1773100701,d3dd47b61314fd033563b6592ced659f,PennController,97,0,tense_pairs_m2_block3,NULL,PennController,95,_Trial_,End,1773100367124,1773099590821,source,demo,NULL
1773100701,d3dd47b61314fd033563b6592ced659f,PennController,98,0,ready_m2_block3,NULL,PennController,96,_Trial_,Start,1773100367128,1773099590821,source,demo,NULL
1773100701,d3dd47b61314fd033563b6592ced659f,PennController,98,0,ready_m2_block3,NULL,PennController,96,_Header_,Start,1773100367128,1773099590821,source,demo,NULL
1773100701,d3dd47b61314fd033563b6592ced659f,PennController,98,0,ready_m2_block3,NULL,PennController,96,_Header_,End,1773100367128,1773099590821,source,demo,NULL
1773100701,d3dd47b61314fd033563b6592ced659f,PennController,98,0,ready_m2_block3,NULL,PennController,96,_Trial_,End,1773100368284,1773099590821,source,demo,NULL
# 16. Block.
# 17. Verb.
# 18. Form.
# 19. Tense.
# 20. Entity.
# 21. PatternTag.
# 22. LeftOpt.
# 23. RightOpt.
# 24. DecisionRT.
# 25. Comments.
1773100701,d3dd47b61314fd033563b6592ced659f,PennController,83,0,exp_m2_block3_p1_blow_PAST,NULL,PennController,81,_Trial_,Start,1773100368291,1773099590821,source,demo,m2_block3,blow,blew,PAST,Chef,p1,Past (C),Future (M),1064,NULL
1773100701,d3dd47b61314fd033563b6592ced659f,PennController,83,0,exp_m2_block3_p1_blow_PAST,NULL,PennController,81,_Header_,Start,1773100368291,1773099590821,source,demo,m2_block3,blow,blew,PAST,Chef,p1,Past (C),Future (M),1064,NULL
1773100701,d3dd47b61314fd033563b6592ced659f,PennController,83,0,exp_m2_block3_p1_blow_PAST,NULL,PennController,81,_Header_,End,1773100368291,1773099590821,source,demo,m2_block3,blow,blew,PAST,Chef,p1,Past (C),Future (M),1064,NULL
1773100701,d3dd47b61314fd033563b6592ced659f,PennController,83,0,exp_m2_block3_p1_blow_PAST,NULL,Selector,tenseChoice,Selection,leftOpt,1773100370162,1773099590821,source,demo,m2_block3,blow,blew,PAST,Chef,p1,Past (C),Future (M),1064,leftOpt;rightOpt
1773100701,d3dd47b61314fd033563b6592ced659f,PennController,83,0,exp_m2_block3_p1_blow_PAST,NULL,PennController,81,_Trial_,End,1773100370162,1773099590821,source,demo,m2_block3,blow,blew,PAST,Chef,p1,Past (C),Future (M),1064,NULL
1773100701,d3dd47b61314fd033563b6592ced659f,PennController,87,0,exp_m2_block3_p1_play_FUTURE,NULL,PennController,85,_Trial_,Start,1773100370166,1773099590821,source,demo,m2_block3,play,will play,FUTURE,Wizard,p1,Past (C),Future (M),913,NULL
1773100701,d3dd47b61314fd033563b6592ced659f,PennController,87,0,exp_m2_block3_p1_play_FUTURE,NULL,PennController,85,_Header_,Start,1773100370166,1773099590821,source,demo,m2_block3,play,will play,FUTURE,Wizard,p1,Past (C),Future (M),913,NULL
1773100701,d3dd47b61314fd033563b6592ced659f,PennController,87,0,exp_m2_block3_p1_play_FUTURE,NULL,PennController,85,_Header_,End,1773100370166,1773099590821,source,demo,m2_block3,play,will play,FUTURE,Wizard,p1,Past (C),Future (M),913,NULL
1773100701,d3dd47b61314fd033563b6592ced659f,PennController,87,0,exp_m2_block3_p1_play_FUTURE,NULL,Selector,tenseChoice,Selection,rightOpt,1773100371886,1773099590821,source,demo,m2_block3,play,will play,FUTURE,Wizard,p1,Past (C),Future (M),913,leftOpt;rightOpt
1773100701,d3dd47b61314fd033563b6592ced659f,PennController,87,0,exp_m2_block3_p1_play_FUTURE,NULL,PennController,85,_Trial_,End,1773100371886,1773099590821,source,demo,m2_block3,play,will play,FUTURE,Wizard,p1,Past (C),Future (M),913,NULL
1773100701,d3dd47b61314fd033563b6592ced659f,PennController,86,0,exp_m2_block3_p1_carry_FUTURE,NULL,PennController,84,_Trial_,Start,1773100371892,1773099590821,source,demo,m2_block3,carry,will carry,FUTURE,Chef,p1,Past (C),Future (M),661,NULL
1773100701,d3dd47b61314fd033563b6592ced659f,PennController,86,0,exp_m2_block3_p1_carry_FUTURE,NULL,PennController,84,_Header_,Start,1773100371892,1773099590821,source,demo,m2_block3,carry,will carry,FUTURE,Chef,p1,Past (C),Future (M),661,NULL
1773100701,d3dd47b61314fd033563b6592ced659f,PennController,86,0,exp_m2_block3_p1_carry_FUTURE,NULL,PennController,84,_Header_,End,1773100371892,1773099590821,source,demo,m2_block3,carry,will carry,FUTURE,Chef,p1,Past (C),Future (M),661,NULL
1773100701,d3dd47b61314fd033563b6592ced659f,PennController,86,0,exp_m2_block3_p1_carry_FUTURE,NULL,Selector,tenseChoice,Selection,rightOpt,1773100373362,1773099590821,source,demo,m2_block3,carry,will carry,FUTURE,Chef,p1,Past (C),Future (M),661,leftOpt;rightOpt
1773100701,d3dd47b61314fd033563b6592ced659f,PennController,86,0,exp_m2_block3_p1_carry_FUTURE,NULL,PennController,84,_Trial_,End,1773100373364,1773099590821,source,demo,m2_block3,carry,will carry,FUTURE,Chef,p1,Past (C),Future (M),661,NULL
1773100701,d3dd47b61314fd033563b6592ced659f,PennController,85,0,exp_m2_block3_p1_shake_PAST,NULL,PennController,83,_Trial_,Start,1773100373369,1773099590821,source,demo,m2_block3,shake,shook,PAST,Pirate,p1,Past (C),Future (M),661,NULL
1773100701,d3dd47b61314fd033563b6592ced659f,PennController,85,0,exp_m2_block3_p1_shake_PAST,NULL,PennController,83,_Header_,Start,1773100373369,1773099590821,source,demo,m2_block3,shake,shook,PAST,Pirate,p1,Past (C),Future (M),661,NULL
1773100701,d3dd47b61314fd033563b6592ced659f,PennController,85,0,exp_m2_block3_p1_shake_PAST,NULL,PennController,83,_Header_,End,1773100373369,1773099590821,source,demo,m2_block3,shake,shook,PAST,Pirate,p1,Past (C),Future (M),661,NULL
1773100701,d3dd47b61314fd033563b6592ced659f,PennController,85,0,exp_m2_block3_p1_shake_PAST,NULL,Selector,tenseChoice,Selection,leftOpt,1773100374839,1773099590821,source,demo,m2_block3,shake,shook,PAST,Pirate,p1,Past (C),Future (M),661,leftOpt;rightOpt
1773100701,d3dd47b61314fd033563b6592ced659f,PennController,85,0,exp_m2_block3_p1_shake_PAST,NULL,PennController,83,_Trial_,End,1773100374840,1773099590821,source,demo,m2_block3,shake,shook,PAST,Pirate,p1,Past (C),Future (M),661,NULL
1773100701,d3dd47b61314fd033563b6592ced659f,PennController,84,0,exp_m2_block3_p1_dig_PAST,NULL,PennController,82,_Trial_,Start,1773100374843,1773099590821,source,demo,m2_block3,dig,dug,PAST,Wizard,p1,Past (C),Future (M),634,NULL
1773100701,d3dd47b61314fd033563b6592ced659f,PennController,84,0,exp_m2_block3_p1_dig_PAST,NULL,PennController,82,_Header_,Start,1773100374843,1773099590821,source,demo,m2_block3,dig,dug,PAST,Wizard,p1,Past (C),Future (M),634,NULL
1773100701,d3dd47b61314fd033563b6592ced659f,PennController,84,0,exp_m2_block3_p1_dig_PAST,NULL,PennController,82,_Header_,End,1773100374843,1773099590821,source,demo,m2_block3,dig,dug,PAST,Wizard,p1,Past (C),Future (M),634,NULL
1773100701,d3dd47b61314fd033563b6592ced659f,PennController,84,0,exp_m2_block3_p1_dig_PAST,NULL,Selector,tenseChoice,Selection,leftOpt,1773100376284,1773099590821,source,demo,m2_block3,dig,dug,PAST,Wizard,p1,Past (C),Future (M),634,leftOpt;rightOpt
1773100701,d3dd47b61314fd033563b6592ced659f,PennController,84,0,exp_m2_block3_p1_dig_PAST,NULL,PennController,82,_Trial_,End,1773100376285,1773099590821,source,demo,m2_block3,dig,dug,PAST,Wizard,p1,Past (C),Future (M),634,NULL
1773100701,d3dd47b61314fd033563b6592ced659f,PennController,88,0,exp_m2_block3_p1_smell_FUTURE,NULL,PennController,86,_Trial_,Start,1773100376293,1773099590821,source,demo,m2_block3,smell,will smell,FUTURE,Pirate,p1,Past (C),Future (M),1014,NULL
1773100701,d3dd47b61314fd033563b6592ced659f,PennController,88,0,exp_m2_block3_p1_smell_FUTURE,NULL,PennController,86,_Header_,Start,1773100376293,1773099590821,source,demo,m2_block3,smell,will smell,FUTURE,Pirate,p1,Past (C),Future (M),1014,NULL
1773100701,d3dd47b61314fd033563b6592ced659f,PennController,88,0,exp_m2_block3_p1_smell_FUTURE,NULL,PennController,86,_Header_,End,1773100376293,1773099590821,source,demo,m2_block3,smell,will smell,FUTURE,Pirate,p1,Past (C),Future (M),1014,NULL
1773100701,d3dd47b61314fd033563b6592ced659f,PennController,88,0,exp_m2_block3_p1_smell_FUTURE,NULL,Selector,tenseChoice,Selection,rightOpt,1773100378120,1773099590821,source,demo,m2_block3,smell,will smell,FUTURE,Pirate,p1,Past (C),Future (M),1014,leftOpt;rightOpt
1773100701,d3dd47b61314fd033563b6592ced659f,PennController,88,0,exp_m2_block3_p1_smell_FUTURE,NULL,PennController,86,_Trial_,End,1773100378122,1773099590821,source,demo,m2_block3,smell,will smell,FUTURE,Pirate,p1,Past (C),Future (M),1014,NULL
1773100701,d3dd47b61314fd033563b6592ced659f,PennController,92,0,exp_m2_block3_p2_carry_FUTURE,NULL,PennController,90,_Trial_,Start,1773100378130,1773099590821,source,demo,m2_block3,carry,will carry,FUTURE,Chef,p2,Past (C),Future (M),759,NULL
1773100701,d3dd47b61314fd033563b6592ced659f,PennController,92,0,exp_m2_block3_p2_carry_FUTURE,NULL,PennController,90,_Header_,Start,1773100378130,1773099590821,source,demo,m2_block3,carry,will carry,FUTURE,Chef,p2,Past (C),Future (M),759,NULL
1773100701,d3dd47b61314fd033563b6592ced659f,PennController,92,0,exp_m2_block3_p2_carry_FUTURE,NULL,PennController,90,_Header_,End,1773100378130,1773099590821,source,demo,m2_block3,carry,will carry,FUTURE,Chef,p2,Past (C),Future (M),759,NULL
1773100701,d3dd47b61314fd033563b6592ced659f,PennController,92,0,exp_m2_block3_p2_carry_FUTURE,NULL,Selector,tenseChoice,Selection,rightOpt,1773100379701,1773099590821,source,demo,m2_block3,carry,will carry,FUTURE,Chef,p2,Past (C),Future (M),759,leftOpt;rightOpt
1773100701,d3dd47b61314fd033563b6592ced659f,PennController,92,0,exp_m2_block3_p2_carry_FUTURE,NULL,PennController,90,_Trial_,End,1773100379702,1773099590821,source,demo,m2_block3,carry,will carry,FUTURE,Chef,p2,Past (C),Future (M),759,NULL
1773100701,d3dd47b61314fd033563b6592ced659f,PennController,90,0,exp_m2_block3_p2_dig_PAST,NULL,PennController,88,_Trial_,Start,1773100379708,1773099590821,source,demo,m2_block3,dig,dug,PAST,Wizard,p2,Past (C),Future (M),579,NULL
1773100701,d3dd47b61314fd033563b6592ced659f,PennController,90,0,exp_m2_block3_p2_dig_PAST,NULL,PennController,88,_Header_,Start,1773100379708,1773099590821,source,demo,m2_block3,dig,dug,PAST,Wizard,p2,Past (C),Future (M),579,NULL
1773100701,d3dd47b61314fd033563b6592ced659f,PennController,90,0,exp_m2_block3_p2_dig_PAST,NULL,PennController,88,_Header_,End,1773100379708,1773099590821,source,demo,m2_block3,dig,dug,PAST,Wizard,p2,Past (C),Future (M),579,NULL
1773100701,d3dd47b61314fd033563b6592ced659f,PennController,90,0,exp_m2_block3_p2_dig_PAST,NULL,Selector,tenseChoice,Selection,leftOpt,1773100381099,1773099590821,source,demo,m2_block3,dig,dug,PAST,Wizard,p2,Past (C),Future (M),579,leftOpt;rightOpt
1773100701,d3dd47b61314fd033563b6592ced659f,PennController,90,0,exp_m2_block3_p2_dig_PAST,NULL,PennController,88,_Trial_,End,1773100381099,1773099590821,source,demo,m2_block3,dig,dug,PAST,Wizard,p2,Past (C),Future (M),579,NULL
1773100701,d3dd47b61314fd033563b6592ced659f,PennController,89,0,exp_m2_block3_p2_blow_PAST,NULL,PennController,87,_Trial_,Start,1773100381103,1773099590821,source,demo,m2_block3,blow,blew,PAST,Chef,p2,Past (C),Future (M),664,NULL
1773100701,d3dd47b61314fd033563b6592ced659f,PennController,89,0,exp_m2_block3_p2_blow_PAST,NULL,PennController,87,_Header_,Start,1773100381103,1773099590821,source,demo,m2_block3,blow,blew,PAST,Chef,p2,Past (C),Future (M),664,NULL
1773100701,d3dd47b61314fd033563b6592ced659f,PennController,89,0,exp_m2_block3_p2_blow_PAST,NULL,PennController,87,_Header_,End,1773100381103,1773099590821,source,demo,m2_block3,blow,blew,PAST,Chef,p2,Past (C),Future (M),664,NULL
1773100701,d3dd47b61314fd033563b6592ced659f,PennController,89,0,exp_m2_block3_p2_blow_PAST,NULL,Selector,tenseChoice,Selection,leftOpt,1773100382581,1773099590821,source,demo,m2_block3,blow,blew,PAST,Chef,p2,Past (C),Future (M),664,leftOpt;rightOpt
1773100701,d3dd47b61314fd033563b6592ced659f,PennController,89,0,exp_m2_block3_p2_blow_PAST,NULL,PennController,87,_Trial_,End,1773100382582,1773099590821,source,demo,m2_block3,blow,blew,PAST,Chef,p2,Past (C),Future (M),664,NULL
1773100701,d3dd47b61314fd033563b6592ced659f,PennController,94,0,exp_m2_block3_p2_smell_FUTURE,NULL,PennController,92,_Trial_,Start,1773100382588,1773099590821,source,demo,m2_block3,smell,will smell,FUTURE,Pirate,p2,Past (C),Future (M),1283,NULL
1773100701,d3dd47b61314fd033563b6592ced659f,PennController,94,0,exp_m2_block3_p2_smell_FUTURE,NULL,PennController,92,_Header_,Start,1773100382588,1773099590821,source,demo,m2_block3,smell,will smell,FUTURE,Pirate,p2,Past (C),Future (M),1283,NULL
1773100701,d3dd47b61314fd033563b6592ced659f,PennController,94,0,exp_m2_block3_p2_smell_FUTURE,NULL,PennController,92,_Header_,End,1773100382588,1773099590821,source,demo,m2_block3,smell,will smell,FUTURE,Pirate,p2,Past (C),Future (M),1283,NULL
1773100701,d3dd47b61314fd033563b6592ced659f,PennController,94,0,exp_m2_block3_p2_smell_FUTURE,NULL,Selector,tenseChoice,Selection,rightOpt,1773100384682,1773099590821,source,demo,m2_block3,smell,will smell,FUTURE,Pirate,p2,Past (C),Future (M),1283,leftOpt;rightOpt
1773100701,d3dd47b61314fd033563b6592ced659f,PennController,94,0,exp_m2_block3_p2_smell_FUTURE,NULL,PennController,92,_Trial_,End,1773100384683,1773099590821,source,demo,m2_block3,smell,will smell,FUTURE,Pirate,p2,Past (C),Future (M),1283,NULL
1773100701,d3dd47b61314fd033563b6592ced659f,PennController,93,0,exp_m2_block3_p2_play_FUTURE,NULL,PennController,91,_Trial_,Start,1773100384690,1773099590821,source,demo,m2_block3,play,will play,FUTURE,Wizard,p2,Past (C),Future (M),898,NULL
1773100701,d3dd47b61314fd033563b6592ced659f,PennController,93,0,exp_m2_block3_p2_play_FUTURE,NULL,PennController,91,_Header_,Start,1773100384690,1773099590821,source,demo,m2_block3,play,will play,FUTURE,Wizard,p2,Past (C),Future (M),898,NULL
1773100701,d3dd47b61314fd033563b6592ced659f,PennController,93,0,exp_m2_block3_p2_play_FUTURE,NULL,PennController,91,_Header_,End,1773100384692,1773099590821,source,demo,m2_block3,play,will play,FUTURE,Wizard,p2,Past (C),Future (M),898,NULL
1773100701,d3dd47b61314fd033563b6592ced659f,PennController,93,0,exp_m2_block3_p2_play_FUTURE,NULL,Selector,tenseChoice,Selection,rightOpt,1773100386402,1773099590821,source,demo,m2_block3,play,will play,FUTURE,Wizard,p2,Past (C),Future (M),898,leftOpt;rightOpt
